subject	time_elapsed_ms	blocknum	block_type	block_response	trialnum	target	level	field	target_present	response	correct	rt
59a07638bfd73c00010ea394	96657	1	practice	z	1	absent	absent	absent	no	absent	1	2000
59a07638bfd73c00010ea394	101288	1	practice	z	2	absent	absent	absent	no	absent	1	2000
59a07638bfd73c00010ea394	104746	1	practice	z	3	circle	global	LVF	yes	present	1	1122
59a07638bfd73c00010ea394	108554	1	practice	z	4	square	local	LVF	yes	present	1	1263
59a07638bfd73c00010ea394	111801	1	practice	z	5	circle	global	RVF	yes	present	1	1174
59a07638bfd73c00010ea394	115012	1	practice	z	6	square	global	LVF	yes	present	1	909
59a07638bfd73c00010ea394	119028	1	practice	z	7	square	global	LVF	yes	absent	0	2000
59a07638bfd73c00010ea394	122385	1	practice	z	8	square	local	LVF	yes	present	1	1174
59a07638bfd73c00010ea394	125595	1	practice	z	9	absent	absent	absent	no	present	0	1214
59a07638bfd73c00010ea394	128641	1	practice	z	10	circle	local	RVF	yes	present	1	950
59a07638bfd73c00010ea394	131987	1	practice	z	11	circle	global	LVF	yes	present	1	1216
59a07638bfd73c00010ea394	135369	1	practice	z	12	circle	local	RVF	yes	present	1	1141
59a07638bfd73c00010ea394	138409	1	practice	z	13	square	global	RVF	yes	present	1	998
59a07638bfd73c00010ea394	141449	1	practice	z	14	circle	global	RVF	yes	present	1	1045
59a07638bfd73c00010ea394	145260	1	practice	z	15	absent	absent	absent	no	absent	1	2000
59a07638bfd73c00010ea394	148115	1	practice	z	16	circle	local	RVF	yes	present	1	790
59a07638bfd73c00010ea394	151809	2	main	z	1	square	local	RVF	yes	present	1	904
59a07638bfd73c00010ea394	154081	2	main	z	2	square	local	RVF	yes	present	1	765
59a07638bfd73c00010ea394	156313	2	main	z	3	circle	local	LVF	yes	present	1	933
59a07638bfd73c00010ea394	159516	2	main	z	4	absent	absent	absent	no	absent	1	2000
59a07638bfd73c00010ea394	162469	2	main	z	5	absent	absent	absent	no	absent	1	2000
59a07638bfd73c00010ea394	165476	2	main	z	6	square	global	LVF	yes	absent	0	2000
59a07638bfd73c00010ea394	167329	2	main	z	7	square	local	RVF	yes	present	1	829
59a07638bfd73c00010ea394	169561	2	main	z	8	square	local	LVF	yes	present	1	821
59a07638bfd73c00010ea394	172379	2	main	z	9	square	local	RVF	yes	present	1	1596
59a07638bfd73c00010ea394	174603	2	main	z	10	circle	global	RVF	yes	present	1	1039
59a07638bfd73c00010ea394	176737	2	main	z	11	circle	global	RVF	yes	present	1	948
59a07638bfd73c00010ea394	179041	2	main	z	12	circle	local	RVF	yes	present	1	1117
59a07638bfd73c00010ea394	181105	2	main	z	13	square	global	RVF	yes	present	1	877
59a07638bfd73c00010ea394	183265	2	main	z	14	circle	local	RVF	yes	present	1	894
59a07638bfd73c00010ea394	186412	2	main	z	15	absent	absent	absent	no	absent	1	2000
59a07638bfd73c00010ea394	188457	2	main	z	16	square	global	RVF	yes	present	1	941
59a07638bfd73c00010ea394	190898	2	main	z	17	square	global	LVF	yes	present	1	797
59a07638bfd73c00010ea394	192769	2	main	z	18	circle	global	LVF	yes	present	1	763
59a07638bfd73c00010ea394	194425	2	main	z	19	circle	global	RVF	yes	present	1	723
59a07638bfd73c00010ea394	196089	2	main	z	20	square	local	LVF	yes	present	1	837
59a07638bfd73c00010ea394	197595	2	main	z	21	circle	local	LVF	yes	present	1	702
59a07638bfd73c00010ea394	200364	2	main	z	22	absent	absent	absent	no	absent	1	2000
59a07638bfd73c00010ea394	202353	2	main	z	23	circle	global	RVF	yes	present	1	796
59a07638bfd73c00010ea394	203977	2	main	z	24	circle	local	LVF	yes	present	1	821
59a07638bfd73c00010ea394	206725	2	main	z	25	absent	absent	absent	no	absent	1	2000
59a07638bfd73c00010ea394	208529	2	main	z	26	square	global	RVF	yes	present	1	797
59a07638bfd73c00010ea394	211356	2	main	z	27	absent	absent	absent	no	absent	1	2000
59a07638bfd73c00010ea394	213131	2	main	z	28	circle	global	LVF	yes	present	1	791
59a07638bfd73c00010ea394	215958	2	main	z	29	absent	absent	absent	no	absent	1	2000
59a07638bfd73c00010ea394	218059	2	main	z	30	square	global	LVF	yes	present	1	903
59a07638bfd73c00010ea394	219977	2	main	z	31	circle	local	RVF	yes	present	1	933
59a07638bfd73c00010ea394	221569	2	main	z	32	circle	global	LVF	yes	present	1	802
59a07638bfd73c00010ea394	223211	2	main	z	33	circle	local	RVF	yes	present	1	847
59a07638bfd73c00010ea394	224819	2	main	z	34	square	local	LVF	yes	present	1	815
59a07638bfd73c00010ea394	226553	2	main	z	35	square	local	LVF	yes	present	1	850
59a07638bfd73c00010ea394	228193	2	main	z	36	circle	local	LVF	yes	present	1	853
59a07638bfd73c00010ea394	230099	2	main	z	37	square	global	LVF	yes	present	1	1103
59a07638bfd73c00010ea394	232932	2	main	z	38	absent	absent	absent	no	absent	1	2000
59a07638bfd73c00010ea394	234769	2	main	z	39	square	global	RVF	yes	present	1	813
59a07638bfd73c00010ea394	236361	2	main	z	40	circle	global	LVF	yes	present	1	782
59a07638bfd73c00010ea394	237873	2	main	z	41	circle	global	RVF	yes	present	1	723
59a07638bfd73c00010ea394	240668	2	main	z	42	absent	absent	absent	no	absent	1	2000
59a07638bfd73c00010ea394	242370	2	main	z	43	square	global	RVF	yes	present	1	734
59a07638bfd73c00010ea394	243921	2	main	z	44	circle	global	RVF	yes	present	1	758
59a07638bfd73c00010ea394	245361	2	main	z	45	circle	global	RVF	yes	present	1	651
59a07638bfd73c00010ea394	246849	2	main	z	46	square	local	RVF	yes	present	1	723
59a07638bfd73c00010ea394	248321	2	main	z	47	circle	global	LVF	yes	present	1	685
59a07638bfd73c00010ea394	249753	2	main	z	48	circle	local	RVF	yes	present	1	628
59a07638bfd73c00010ea394	251289	2	main	z	49	circle	local	LVF	yes	present	1	637
59a07638bfd73c00010ea394	252891	2	main	z	50	circle	global	RVF	yes	present	1	815
59a07638bfd73c00010ea394	254545	2	main	z	51	square	local	RVF	yes	present	1	869
59a07638bfd73c00010ea394	256177	2	main	z	52	circle	global	LVF	yes	present	1	829
59a07638bfd73c00010ea394	257803	2	main	z	53	square	global	LVF	yes	present	1	821
59a07638bfd73c00010ea394	259500	2	main	z	54	circle	local	LVF	yes	present	1	870
59a07638bfd73c00010ea394	261202	2	main	z	55	square	local	LVF	yes	present	1	837
59a07638bfd73c00010ea394	262891	2	main	z	56	square	global	LVF	yes	present	1	855
59a07638bfd73c00010ea394	264721	2	main	z	57	circle	local	RVF	yes	present	1	930
59a07638bfd73c00010ea394	266546	2	main	z	58	square	global	RVF	yes	present	1	998
59a07638bfd73c00010ea394	268377	2	main	z	59	circle	local	RVF	yes	present	1	1004
59a07638bfd73c00010ea394	270017	2	main	z	60	square	local	RVF	yes	present	1	836
59a07638bfd73c00010ea394	271721	2	main	z	61	square	global	LVF	yes	present	1	854
59a07638bfd73c00010ea394	273457	2	main	z	62	square	global	LVF	yes	present	1	893
59a07638bfd73c00010ea394	275889	2	main	z	63	absent	absent	absent	no	present	0	1533
59a07638bfd73c00010ea394	278716	2	main	z	64	square	global	RVF	yes	absent	0	2000
59a07638bfd73c00010ea394	281740	2	main	z	65	absent	absent	absent	no	absent	1	2000
59a07638bfd73c00010ea394	285006	2	main	z	66	absent	absent	absent	no	absent	1	2000
59a07638bfd73c00010ea394	286809	2	main	z	67	square	local	LVF	yes	present	1	739
59a07638bfd73c00010ea394	289620	2	main	z	68	absent	absent	absent	no	absent	1	2000
59a07638bfd73c00010ea394	292668	2	main	z	69	square	global	RVF	yes	absent	0	2000
59a07638bfd73c00010ea394	294505	2	main	z	70	square	local	LVF	yes	present	1	835
59a07638bfd73c00010ea394	296073	2	main	z	71	square	local	RVF	yes	present	1	763
59a07638bfd73c00010ea394	297745	2	main	z	72	circle	local	LVF	yes	present	1	860
59a07638bfd73c00010ea394	299449	2	main	z	73	circle	local	RVF	yes	present	1	915
59a07638bfd73c00010ea394	301113	2	main	z	74	circle	global	LVF	yes	present	1	875
59a07638bfd73c00010ea394	303940	2	main	z	75	absent	absent	absent	no	absent	1	2000
59a07638bfd73c00010ea394	305689	2	main	z	76	circle	local	LVF	yes	present	1	725
59a07638bfd73c00010ea394	307473	2	main	z	77	circle	global	LVF	yes	present	1	996
59a07638bfd73c00010ea394	308913	2	main	z	78	square	local	LVF	yes	present	1	675
59a07638bfd73c00010ea394	311740	2	main	z	79	absent	absent	absent	no	absent	1	2000
59a07638bfd73c00010ea394	314588	2	main	z	80	absent	absent	absent	no	absent	1	2000
59a07638bfd73c00010ea394	327482	3	practice	slash	1	square	global	RVF	yes	present	1	681
59a07638bfd73c00010ea394	330329	3	practice	slash	2	circle	local	RVF	yes	present	1	645
59a07638bfd73c00010ea394	333049	3	practice	slash	3	square	global	LVF	yes	present	1	629
59a07638bfd73c00010ea394	335636	3	practice	slash	4	square	global	LVF	yes	present	1	719
59a07638bfd73c00010ea394	338017	3	practice	slash	5	circle	local	RVF	yes	present	1	498
59a07638bfd73c00010ea394	342013	3	practice	slash	6	absent	absent	absent	no	absent	1	2000
59a07638bfd73c00010ea394	344585	3	practice	slash	7	circle	global	LVF	yes	present	1	636
59a07638bfd73c00010ea394	347267	3	practice	slash	8	circle	global	RVF	yes	present	1	765
59a07638bfd73c00010ea394	351300	3	practice	slash	9	absent	absent	absent	no	absent	1	2000
59a07638bfd73c00010ea394	353961	3	practice	slash	10	circle	global	RVF	yes	present	1	669
59a07638bfd73c00010ea394	357804	3	practice	slash	11	absent	absent	absent	no	absent	1	2000
59a07638bfd73c00010ea394	360569	3	practice	slash	12	square	local	LVF	yes	present	1	779
59a07638bfd73c00010ea394	363116	3	practice	slash	13	square	local	LVF	yes	present	1	727
59a07638bfd73c00010ea394	365825	3	practice	slash	14	circle	local	RVF	yes	present	1	725
59a07638bfd73c00010ea394	369748	3	practice	slash	15	absent	absent	absent	no	absent	1	2000
59a07638bfd73c00010ea394	372465	3	practice	slash	16	circle	global	LVF	yes	present	1	765
59a07638bfd73c00010ea394	377207	4	main	slash	1	absent	absent	absent	no	absent	1	2000
59a07638bfd73c00010ea394	379036	4	main	slash	2	circle	global	RVF	yes	present	1	749
59a07638bfd73c00010ea394	381242	4	main	slash	3	square	local	LVF	yes	present	1	740
59a07638bfd73c00010ea394	382857	4	main	slash	4	square	local	RVF	yes	present	1	717
59a07638bfd73c00010ea394	384569	4	main	slash	5	circle	local	RVF	yes	present	1	789
59a07638bfd73c00010ea394	386251	4	main	slash	6	circle	global	LVF	yes	present	1	839
59a07638bfd73c00010ea394	387932	4	main	slash	7	circle	local	RVF	yes	present	1	760
59a07638bfd73c00010ea394	389674	4	main	slash	8	square	global	LVF	yes	present	1	838
59a07638bfd73c00010ea394	391473	4	main	slash	9	circle	global	RVF	yes	present	1	899
59a07638bfd73c00010ea394	393138	4	main	slash	10	circle	global	LVF	yes	present	1	861
59a07638bfd73c00010ea394	394929	4	main	slash	11	circle	local	RVF	yes	present	1	915
59a07638bfd73c00010ea394	396665	4	main	slash	12	circle	local	LVF	yes	present	1	954
59a07638bfd73c00010ea394	399486	4	main	slash	13	absent	absent	absent	no	absent	1	2000
59a07638bfd73c00010ea394	401289	4	main	slash	14	square	global	LVF	yes	present	1	829
59a07638bfd73c00010ea394	403049	4	main	slash	15	square	local	LVF	yes	present	1	900
59a07638bfd73c00010ea394	404809	4	main	slash	16	square	local	RVF	yes	present	1	893
59a07638bfd73c00010ea394	406601	4	main	slash	17	square	global	RVF	yes	present	1	933
59a07638bfd73c00010ea394	408321	4	main	slash	18	circle	local	LVF	yes	present	1	917
59a07638bfd73c00010ea394	410081	4	main	slash	19	circle	local	LVF	yes	present	1	933
59a07638bfd73c00010ea394	412879	4	main	slash	20	absent	absent	absent	no	absent	1	2000
59a07638bfd73c00010ea394	415145	4	main	slash	21	square	local	LVF	yes	present	1	861
59a07638bfd73c00010ea394	418004	4	main	slash	22	absent	absent	absent	no	absent	1	2000
59a07638bfd73c00010ea394	419905	4	main	slash	23	circle	global	LVF	yes	present	1	909
59a07638bfd73c00010ea394	421586	4	main	slash	24	circle	local	RVF	yes	present	1	781
59a07638bfd73c00010ea394	424486	4	main	slash	25	absent	absent	absent	no	absent	1	2000
59a07638bfd73c00010ea394	426273	4	main	slash	26	circle	global	LVF	yes	present	1	821
59a07638bfd73c00010ea394	428106	4	main	slash	27	square	global	LVF	yes	present	1	949
59a07638bfd73c00010ea394	430049	4	main	slash	28	circle	local	LVF	yes	present	1	1117
59a07638bfd73c00010ea394	432812	4	main	slash	29	absent	absent	absent	no	absent	1	2000
59a07638bfd73c00010ea394	434595	4	main	slash	30	square	local	RVF	yes	present	1	837
59a07638bfd73c00010ea394	437420	4	main	slash	31	absent	absent	absent	no	absent	1	2000
59a07638bfd73c00010ea394	439307	4	main	slash	32	square	global	RVF	yes	present	1	926
59a07638bfd73c00010ea394	442094	4	main	slash	33	absent	absent	absent	no	absent	1	2000
59a07638bfd73c00010ea394	443754	4	main	slash	34	square	local	RVF	yes	present	1	837
59a07638bfd73c00010ea394	445404	4	main	slash	35	square	global	RVF	yes	present	1	856
59a07638bfd73c00010ea394	446971	4	main	slash	36	square	global	RVF	yes	present	1	758
59a07638bfd73c00010ea394	448601	4	main	slash	37	square	global	LVF	yes	present	1	804
59a07638bfd73c00010ea394	450297	4	main	slash	38	square	local	LVF	yes	present	1	869
59a07638bfd73c00010ea394	453084	4	main	slash	39	circle	global	RVF	yes	absent	0	2000
59a07638bfd73c00010ea394	455059	4	main	slash	40	circle	global	RVF	yes	present	1	815
59a07638bfd73c00010ea394	456681	4	main	slash	41	square	global	LVF	yes	present	1	837
59a07638bfd73c00010ea394	458378	4	main	slash	42	circle	global	RVF	yes	present	1	757
59a07638bfd73c00010ea394	460113	4	main	slash	43	square	local	RVF	yes	present	1	914
59a07638bfd73c00010ea394	461738	4	main	slash	44	circle	local	LVF	yes	present	1	853
59a07638bfd73c00010ea394	463355	4	main	slash	45	circle	local	LVF	yes	present	1	831
59a07638bfd73c00010ea394	464995	4	main	slash	46	square	global	RVF	yes	present	1	855
59a07638bfd73c00010ea394	466658	4	main	slash	47	square	global	LVF	yes	present	1	853
59a07638bfd73c00010ea394	468258	4	main	slash	48	circle	local	RVF	yes	present	1	838
59a07638bfd73c00010ea394	469988	4	main	slash	49	circle	global	LVF	yes	present	1	967
59a07638bfd73c00010ea394	471586	4	main	slash	50	circle	local	LVF	yes	present	1	829
59a07638bfd73c00010ea394	474372	4	main	slash	51	absent	absent	absent	no	absent	1	2000
59a07638bfd73c00010ea394	476113	4	main	slash	52	square	global	RVF	yes	present	1	757
59a07638bfd73c00010ea394	477681	4	main	slash	53	circle	global	LVF	yes	present	1	765
59a07638bfd73c00010ea394	480463	4	main	slash	54	absent	absent	absent	no	absent	1	2000
59a07638bfd73c00010ea394	483262	4	main	slash	55	absent	absent	absent	no	absent	1	2000
59a07638bfd73c00010ea394	484829	4	main	slash	56	circle	global	LVF	yes	present	1	721
59a07638bfd73c00010ea394	486378	4	main	slash	57	square	global	RVF	yes	present	1	742
59a07638bfd73c00010ea394	489149	4	main	slash	58	square	local	LVF	yes	absent	0	2000
59a07638bfd73c00010ea394	491852	4	main	slash	59	absent	absent	absent	no	absent	1	2000
59a07638bfd73c00010ea394	493610	4	main	slash	60	circle	local	LVF	yes	present	1	894
59a07638bfd73c00010ea394	495594	4	main	slash	61	circle	global	RVF	yes	present	1	950
59a07638bfd73c00010ea394	497306	4	main	slash	62	square	global	LVF	yes	present	1	917
59a07638bfd73c00010ea394	499076	4	main	slash	63	square	local	RVF	yes	present	1	949
59a07638bfd73c00010ea394	501868	4	main	slash	64	absent	absent	absent	no	absent	1	2000
59a07638bfd73c00010ea394	503618	4	main	slash	65	square	local	RVF	yes	present	1	822
59a07638bfd73c00010ea394	505266	4	main	slash	66	circle	local	RVF	yes	present	1	803
59a07638bfd73c00010ea394	506930	4	main	slash	67	circle	global	LVF	yes	present	1	838
59a07638bfd73c00010ea394	508482	4	main	slash	68	square	local	LVF	yes	present	1	781
59a07638bfd73c00010ea394	511364	4	main	slash	69	absent	absent	absent	no	absent	1	2000
59a07638bfd73c00010ea394	513258	4	main	slash	70	circle	global	RVF	yes	present	1	797
59a07638bfd73c00010ea394	514858	4	main	slash	71	circle	local	RVF	yes	present	1	814
59a07638bfd73c00010ea394	517628	4	main	slash	72	absent	absent	absent	no	absent	1	2000
59a07638bfd73c00010ea394	519507	4	main	slash	73	square	global	RVF	yes	present	1	837
59a07638bfd73c00010ea394	521052	4	main	slash	74	circle	global	RVF	yes	present	1	759
59a07638bfd73c00010ea394	522482	4	main	slash	75	square	global	LVF	yes	present	1	622
59a07638bfd73c00010ea394	523962	4	main	slash	76	square	local	LVF	yes	present	1	652
59a07638bfd73c00010ea394	525546	4	main	slash	77	square	local	RVF	yes	present	1	779
59a07638bfd73c00010ea394	528333	4	main	slash	78	absent	absent	absent	no	absent	1	2000
59a07638bfd73c00010ea394	529794	4	main	slash	79	circle	local	RVF	yes	present	1	622
59a07638bfd73c00010ea394	531234	4	main	slash	80	square	local	LVF	yes	present	1	645
5dee933631a7e05381da6b02	115610	1	practice	slash	1	absent	absent	absent	no	absent	1	2000
5dee933631a7e05381da6b02	119260	1	practice	slash	2	circle	global	LVF	yes	present	1	679
5dee933631a7e05381da6b02	123584	1	practice	slash	3	circle	local	RVF	yes	absent	0	2000
5dee933631a7e05381da6b02	126653	1	practice	slash	4	square	local	LVF	yes	present	1	881
5dee933631a7e05381da6b02	129501	1	practice	slash	5	square	global	LVF	yes	present	1	658
5dee933631a7e05381da6b02	132324	1	practice	slash	6	circle	local	RVF	yes	present	1	680
5dee933631a7e05381da6b02	135405	1	practice	slash	7	absent	absent	absent	no	present	0	1091
5dee933631a7e05381da6b02	138063	1	practice	slash	8	circle	global	RVF	yes	present	1	669
5dee933631a7e05381da6b02	141969	1	practice	slash	9	absent	absent	absent	no	absent	1	2000
5dee933631a7e05381da6b02	144629	1	practice	slash	10	square	global	LVF	yes	present	1	672
5dee933631a7e05381da6b02	147356	1	practice	slash	11	square	local	LVF	yes	present	1	747
5dee933631a7e05381da6b02	149899	1	practice	slash	12	square	global	RVF	yes	present	1	621
5dee933631a7e05381da6b02	152420	1	practice	slash	13	circle	global	RVF	yes	present	1	622
5dee933631a7e05381da6b02	156300	1	practice	slash	14	absent	absent	absent	no	absent	1	2000
5dee933631a7e05381da6b02	159388	1	practice	slash	15	circle	local	RVF	yes	present	1	1150
5dee933631a7e05381da6b02	162244	1	practice	slash	16	circle	global	LVF	yes	present	1	820
5dee933631a7e05381da6b02	168914	2	main	slash	1	square	local	RVF	yes	present	1	851
5dee933631a7e05381da6b02	171090	2	main	slash	2	square	global	LVF	yes	present	1	741
5dee933631a7e05381da6b02	173010	2	main	slash	3	circle	local	LVF	yes	present	1	709
5dee933631a7e05381da6b02	174762	2	main	slash	4	square	local	LVF	yes	present	1	676
5dee933631a7e05381da6b02	176970	2	main	slash	5	absent	absent	absent	no	present	0	1099
5dee933631a7e05381da6b02	178978	2	main	slash	6	square	local	RVF	yes	present	1	655
5dee933631a7e05381da6b02	182075	2	main	slash	7	absent	absent	absent	no	absent	1	2000
5dee933631a7e05381da6b02	183682	2	main	slash	8	circle	global	LVF	yes	present	1	620
5dee933631a7e05381da6b02	185586	2	main	slash	9	circle	global	RVF	yes	present	1	656
5dee933631a7e05381da6b02	187442	2	main	slash	10	square	local	RVF	yes	present	1	727
5dee933631a7e05381da6b02	189322	2	main	slash	11	circle	global	RVF	yes	present	1	772
5dee933631a7e05381da6b02	191202	2	main	slash	12	circle	local	RVF	yes	present	1	783
5dee933631a7e05381da6b02	193194	2	main	slash	13	circle	local	LVF	yes	present	1	856
5dee933631a7e05381da6b02	195490	2	main	slash	14	square	local	RVF	yes	present	1	1050
5dee933631a7e05381da6b02	198758	2	main	slash	15	absent	absent	absent	no	absent	1	2000
5dee933631a7e05381da6b02	201828	2	main	slash	16	absent	absent	absent	no	absent	1	2000
5dee933631a7e05381da6b02	203546	2	main	slash	17	square	global	RVF	yes	present	1	648
5dee933631a7e05381da6b02	205314	2	main	slash	18	square	global	LVF	yes	present	1	681
5dee933631a7e05381da6b02	207210	2	main	slash	19	square	global	RVF	yes	present	1	892
5dee933631a7e05381da6b02	210253	2	main	slash	20	absent	absent	absent	no	absent	1	2000
5dee933631a7e05381da6b02	211922	2	main	slash	21	square	local	LVF	yes	present	1	649
5dee933631a7e05381da6b02	213754	2	main	slash	22	circle	local	RVF	yes	present	1	763
5dee933631a7e05381da6b02	215474	2	main	slash	23	square	local	LVF	yes	present	1	681
5dee933631a7e05381da6b02	217314	2	main	slash	24	square	global	RVF	yes	present	1	819
5dee933631a7e05381da6b02	220296	2	main	slash	25	absent	absent	absent	no	absent	1	2000
5dee933631a7e05381da6b02	221938	2	main	slash	26	square	global	LVF	yes	present	1	722
5dee933631a7e05381da6b02	223794	2	main	slash	27	circle	global	RVF	yes	present	1	826
5dee933631a7e05381da6b02	225570	2	main	slash	28	circle	global	LVF	yes	present	1	817
5dee933631a7e05381da6b02	227706	2	main	slash	29	absent	absent	absent	no	present	0	1201
5dee933631a7e05381da6b02	229554	2	main	slash	30	circle	global	LVF	yes	present	1	747
5dee933631a7e05381da6b02	231514	2	main	slash	31	circle	global	RVF	yes	present	1	1005
5dee933631a7e05381da6b02	234444	2	main	slash	32	absent	absent	absent	no	absent	1	2000
5dee933631a7e05381da6b02	236362	2	main	slash	33	circle	local	RVF	yes	present	1	749
5dee933631a7e05381da6b02	238298	2	main	slash	34	square	global	LVF	yes	present	1	949
5dee933631a7e05381da6b02	240122	2	main	slash	35	circle	local	RVF	yes	present	1	788
5dee933631a7e05381da6b02	241906	2	main	slash	36	circle	local	LVF	yes	present	1	786
5dee933631a7e05381da6b02	243498	2	main	slash	37	square	global	RVF	yes	present	1	644
5dee933631a7e05381da6b02	245226	2	main	slash	38	square	local	LVF	yes	present	1	603
5dee933631a7e05381da6b02	246954	2	main	slash	39	circle	global	LVF	yes	present	1	696
5dee933631a7e05381da6b02	248706	2	main	slash	40	circle	local	LVF	yes	present	1	781
5dee933631a7e05381da6b02	251678	2	main	slash	41	absent	absent	absent	no	absent	1	2000
5dee933631a7e05381da6b02	253562	2	main	slash	42	circle	local	LVF	yes	present	1	581
5dee933631a7e05381da6b02	255290	2	main	slash	43	square	local	LVF	yes	present	1	690
5dee933631a7e05381da6b02	258301	2	main	slash	44	absent	absent	absent	no	absent	1	2000
5dee933631a7e05381da6b02	260082	2	main	slash	45	square	global	RVF	yes	present	1	677
5dee933631a7e05381da6b02	261770	2	main	slash	46	circle	local	RVF	yes	present	1	714
5dee933631a7e05381da6b02	263514	2	main	slash	47	square	local	LVF	yes	present	1	773
5dee933631a7e05381da6b02	265386	2	main	slash	48	absent	absent	absent	no	present	0	943
5dee933631a7e05381da6b02	267130	2	main	slash	49	square	global	LVF	yes	present	1	768
5dee933631a7e05381da6b02	268930	2	main	slash	50	circle	local	LVF	yes	present	1	850
5dee933631a7e05381da6b02	271831	2	main	slash	51	absent	absent	absent	no	absent	1	2000
5dee933631a7e05381da6b02	273547	2	main	slash	52	circle	local	LVF	yes	present	1	662
5dee933631a7e05381da6b02	277482	2	main	slash	53	square	global	RVF	yes	present	1	611
5dee933631a7e05381da6b02	279162	2	main	slash	54	square	global	LVF	yes	present	1	588
5dee933631a7e05381da6b02	280754	2	main	slash	55	square	local	RVF	yes	present	1	663
5dee933631a7e05381da6b02	282250	2	main	slash	56	circle	global	RVF	yes	present	1	573
5dee933631a7e05381da6b02	283682	2	main	slash	57	square	local	LVF	yes	present	1	520
5dee933631a7e05381da6b02	284914	2	main	slash	58	circle	global	RVF	yes	present	1	418
5dee933631a7e05381da6b02	286170	2	main	slash	59	square	global	RVF	yes	present	1	439
5dee933631a7e05381da6b02	287442	2	main	slash	60	circle	local	LVF	yes	present	1	493
5dee933631a7e05381da6b02	289498	2	main	slash	61	square	local	RVF	yes	present	1	1298
5dee933631a7e05381da6b02	290858	2	main	slash	62	circle	local	RVF	yes	present	1	589
5dee933631a7e05381da6b02	293653	2	main	slash	63	absent	absent	absent	no	absent	1	2000
5dee933631a7e05381da6b02	296314	2	main	slash	64	circle	global	RVF	yes	present	1	1691
5dee933631a7e05381da6b02	298906	2	main	slash	65	square	global	LVF	yes	present	1	1213
5dee933631a7e05381da6b02	301961	2	main	slash	66	absent	absent	absent	no	absent	1	2000
5dee933631a7e05381da6b02	303594	2	main	slash	67	square	local	RVF	yes	present	1	580
5dee933631a7e05381da6b02	305290	2	main	slash	68	circle	global	LVF	yes	present	1	441
5dee933631a7e05381da6b02	306842	2	main	slash	69	square	global	LVF	yes	present	1	390
5dee933631a7e05381da6b02	308168	2	main	slash	70	circle	global	LVF	yes	present	1	376
5dee933631a7e05381da6b02	309378	2	main	slash	71	absent	absent	absent	no	present	0	291
5dee933631a7e05381da6b02	310898	2	main	slash	72	circle	global	LVF	yes	present	1	360
5dee933631a7e05381da6b02	312322	2	main	slash	73	circle	local	RVF	yes	present	1	532
5dee933631a7e05381da6b02	313658	2	main	slash	74	circle	global	LVF	yes	present	1	450
5dee933631a7e05381da6b02	315010	2	main	slash	75	square	global	RVF	yes	present	1	467
5dee933631a7e05381da6b02	316194	2	main	slash	76	square	local	LVF	yes	present	1	266
5dee933631a7e05381da6b02	317498	2	main	slash	77	square	local	RVF	yes	present	1	387
5dee933631a7e05381da6b02	318666	2	main	slash	78	circle	local	RVF	yes	present	1	269
5dee933631a7e05381da6b02	319842	2	main	slash	79	absent	absent	absent	no	present	0	277
5dee933631a7e05381da6b02	321834	2	main	slash	80	circle	global	RVF	yes	present	1	701
5dee933631a7e05381da6b02	366527	3	practice	z	1	square	global	LVF	yes	present	1	378
5dee933631a7e05381da6b02	369188	3	practice	z	2	square	global	RVF	yes	present	1	490
5dee933631a7e05381da6b02	371756	3	practice	z	3	circle	local	RVF	yes	present	1	522
5dee933631a7e05381da6b02	375753	3	practice	z	4	absent	absent	absent	no	absent	1	2000
5dee933631a7e05381da6b02	378324	3	practice	z	5	circle	global	LVF	yes	present	1	734
5dee933631a7e05381da6b02	381045	3	practice	z	6	square	global	LVF	yes	present	1	701
5dee933631a7e05381da6b02	383845	3	practice	z	7	square	local	LVF	yes	present	1	666
5dee933631a7e05381da6b02	386421	3	practice	z	8	circle	local	RVF	yes	present	1	588
5dee933631a7e05381da6b02	389012	3	practice	z	9	circle	local	RVF	yes	present	1	578
5dee933631a7e05381da6b02	391589	3	practice	z	10	circle	global	LVF	yes	present	1	552
5dee933631a7e05381da6b02	394268	3	practice	z	11	square	local	LVF	yes	present	1	678
5dee933631a7e05381da6b02	396948	3	practice	z	12	circle	global	RVF	yes	present	1	622
5dee933631a7e05381da6b02	400961	3	practice	z	13	absent	absent	absent	no	absent	1	2000
5dee933631a7e05381da6b02	403676	3	practice	z	14	circle	global	RVF	yes	present	1	677
5dee933631a7e05381da6b02	407701	3	practice	z	15	absent	absent	absent	no	absent	1	2000
5dee933631a7e05381da6b02	411655	3	practice	z	16	absent	absent	absent	no	absent	1	2000
5dee933631a7e05381da6b02	415058	4	main	z	1	circle	local	RVF	yes	present	1	515
5dee933631a7e05381da6b02	416618	4	main	z	2	square	local	RVF	yes	present	1	323
5dee933631a7e05381da6b02	419696	4	main	z	3	absent	absent	absent	no	absent	1	2000
5dee933631a7e05381da6b02	421074	4	main	z	4	circle	global	RVF	yes	present	1	408
5dee933631a7e05381da6b02	422682	4	main	z	5	square	local	RVF	yes	present	1	515
5dee933631a7e05381da6b02	424178	4	main	z	6	square	local	LVF	yes	present	1	426
5dee933631a7e05381da6b02	425682	4	main	z	7	square	global	RVF	yes	present	1	479
5dee933631a7e05381da6b02	427026	4	main	z	8	circle	local	LVF	yes	present	1	388
5dee933631a7e05381da6b02	428354	4	main	z	9	circle	global	RVF	yes	present	1	348
5dee933631a7e05381da6b02	429754	4	main	z	10	circle	local	RVF	yes	present	1	446
5dee933631a7e05381da6b02	432692	4	main	z	11	absent	absent	absent	no	absent	1	2000
5dee933631a7e05381da6b02	434018	4	main	z	12	circle	local	LVF	yes	present	1	391
5dee933631a7e05381da6b02	436946	4	main	z	13	absent	absent	absent	no	absent	1	2000
5dee933631a7e05381da6b02	438186	4	main	z	14	circle	global	LVF	yes	present	1	303
5dee933631a7e05381da6b02	441134	4	main	z	15	absent	absent	absent	no	absent	1	2000
5dee933631a7e05381da6b02	442330	4	main	z	16	circle	global	LVF	yes	present	1	310
5dee933631a7e05381da6b02	445321	4	main	z	17	square	local	RVF	yes	absent	0	2000
5dee933631a7e05381da6b02	446698	4	main	z	18	circle	global	RVF	yes	present	1	341
5dee933631a7e05381da6b02	448058	4	main	z	19	square	global	RVF	yes	present	1	365
5dee933631a7e05381da6b02	451094	4	main	z	20	absent	absent	absent	no	absent	1	2000
5dee933631a7e05381da6b02	452266	4	main	z	21	absent	absent	absent	no	present	0	252
5dee933631a7e05381da6b02	453722	4	main	z	22	square	global	LVF	yes	present	1	357
5dee933631a7e05381da6b02	454978	4	main	z	23	square	local	LVF	yes	present	1	312
5dee933631a7e05381da6b02	456290	4	main	z	24	square	local	LVF	yes	present	1	356
5dee933631a7e05381da6b02	459202	4	main	z	25	absent	absent	absent	no	absent	1	2000
5dee933631a7e05381da6b02	460418	4	main	z	26	square	local	LVF	yes	present	1	263
5dee933631a7e05381da6b02	461930	4	main	z	27	circle	local	RVF	yes	present	1	440
5dee933631a7e05381da6b02	463206	4	main	z	28	circle	local	LVF	yes	present	1	371
5dee933631a7e05381da6b02	464418	4	main	z	29	square	global	RVF	yes	present	1	326
5dee933631a7e05381da6b02	465610	4	main	z	30	circle	global	RVF	yes	present	1	283
5dee933631a7e05381da6b02	466770	4	main	z	31	circle	global	LVF	yes	present	1	242
5dee933631a7e05381da6b02	468034	4	main	z	32	square	local	RVF	yes	present	1	322
5dee933631a7e05381da6b02	469322	4	main	z	33	circle	global	LVF	yes	present	1	392
5dee933631a7e05381da6b02	470458	4	main	z	34	absent	absent	absent	no	present	0	243
5dee933631a7e05381da6b02	471998	4	main	z	35	square	global	LVF	yes	present	1	371
5dee933631a7e05381da6b02	473098	4	main	z	36	square	global	RVF	yes	present	1	230
5dee933631a7e05381da6b02	474466	4	main	z	37	circle	local	RVF	yes	present	1	447
5dee933631a7e05381da6b02	475682	4	main	z	38	circle	local	LVF	yes	present	1	295
5dee933631a7e05381da6b02	476858	4	main	z	39	square	global	LVF	yes	present	1	303
5dee933631a7e05381da6b02	477978	4	main	z	40	square	global	LVF	yes	present	1	222
5dee933631a7e05381da6b02	479162	4	main	z	41	square	local	RVF	yes	present	1	255
5dee933631a7e05381da6b02	480330	4	main	z	42	square	local	LVF	yes	present	1	255
5dee933631a7e05381da6b02	481490	4	main	z	43	square	local	LVF	yes	present	1	264
5dee933631a7e05381da6b02	482698	4	main	z	44	square	local	LVF	yes	present	1	305
5dee933631a7e05381da6b02	483914	4	main	z	45	circle	local	RVF	yes	present	1	319
5dee933631a7e05381da6b02	485123	4	main	z	46	square	local	RVF	yes	present	1	293
5dee933631a7e05381da6b02	488031	4	main	z	47	absent	absent	absent	no	absent	1	2000
5dee933631a7e05381da6b02	489338	4	main	z	48	circle	local	RVF	yes	present	1	337
5dee933631a7e05381da6b02	490482	4	main	z	49	square	global	RVF	yes	present	1	231
5dee933631a7e05381da6b02	491658	4	main	z	50	square	global	RVF	yes	present	1	239
5dee933631a7e05381da6b02	492818	4	main	z	51	circle	local	RVF	yes	present	1	247
5dee933631a7e05381da6b02	495721	4	main	z	52	absent	absent	absent	no	absent	1	2000
5dee933631a7e05381da6b02	497042	4	main	z	53	square	local	RVF	yes	present	1	334
5dee933631a7e05381da6b02	499926	4	main	z	54	absent	absent	absent	no	absent	1	2000
5dee933631a7e05381da6b02	503029	4	main	z	55	absent	absent	absent	no	absent	1	2000
5dee933631a7e05381da6b02	505782	4	main	z	56	absent	absent	absent	no	absent	1	2000
5dee933631a7e05381da6b02	508735	4	main	z	57	absent	absent	absent	no	absent	1	2000
5dee933631a7e05381da6b02	511771	4	main	z	58	absent	absent	absent	no	absent	1	2000
5dee933631a7e05381da6b02	513146	4	main	z	59	circle	global	LVF	yes	present	1	355
5dee933631a7e05381da6b02	514418	4	main	z	60	circle	local	RVF	yes	present	1	342
5dee933631a7e05381da6b02	515642	4	main	z	61	circle	global	RVF	yes	present	1	333
5dee933631a7e05381da6b02	516874	4	main	z	62	square	global	LVF	yes	present	1	363
5dee933631a7e05381da6b02	517978	4	main	z	63	square	local	LVF	yes	present	1	249
5dee933631a7e05381da6b02	519122	4	main	z	64	square	global	LVF	yes	present	1	226
5dee933631a7e05381da6b02	520430	4	main	z	65	circle	local	LVF	yes	present	1	370
5dee933631a7e05381da6b02	521530	4	main	z	66	square	local	RVF	yes	present	1	247
5dee933631a7e05381da6b02	522682	4	main	z	67	circle	global	LVF	yes	present	1	231
5dee933631a7e05381da6b02	523770	4	main	z	68	square	global	RVF	yes	present	1	219
5dee933631a7e05381da6b02	524954	4	main	z	69	square	global	RVF	yes	present	1	269
5dee933631a7e05381da6b02	526082	4	main	z	70	circle	global	LVF	yes	present	1	245
5dee933631a7e05381da6b02	527210	4	main	z	71	circle	local	LVF	yes	present	1	238
5dee933631a7e05381da6b02	528354	4	main	z	72	circle	local	LVF	yes	present	1	248
5dee933631a7e05381da6b02	529466	4	main	z	73	square	global	LVF	yes	present	1	243
5dee933631a7e05381da6b02	530570	4	main	z	74	circle	global	RVF	yes	present	1	212
5dee933631a7e05381da6b02	531658	4	main	z	75	circle	global	LVF	yes	present	1	198
5dee933631a7e05381da6b02	532778	4	main	z	76	circle	global	RVF	yes	present	1	234
5dee933631a7e05381da6b02	533882	4	main	z	77	absent	absent	absent	no	present	0	203
5dee933631a7e05381da6b02	536196	4	main	z	78	circle	global	RVF	yes	present	1	373
5dee933631a7e05381da6b02	537306	4	main	z	79	circle	local	LVF	yes	present	1	257
5dee933631a7e05381da6b02	538474	4	main	z	80	square	global	LVF	yes	present	1	274
5e5731e3e1e8b90e25c1f3a2	334694	1	practice	z	1	absent	absent	absent	no	absent	1	2000
5e5731e3e1e8b90e25c1f3a2	341687	1	practice	z	2	absent	absent	absent	no	absent	1	2000
5e5731e3e1e8b90e25c1f3a2	345122	1	practice	z	3	circle	global	RVF	yes	present	1	684
5e5731e3e1e8b90e25c1f3a2	348141	1	practice	z	4	circle	local	RVF	yes	present	1	821
5e5731e3e1e8b90e25c1f3a2	351948	1	practice	z	5	absent	absent	absent	no	present	0	1229
5e5731e3e1e8b90e25c1f3a2	355849	1	practice	z	6	circle	local	RVF	yes	present	1	1813
5e5731e3e1e8b90e25c1f3a2	361325	1	practice	z	7	circle	global	RVF	yes	present	1	1639
5e5731e3e1e8b90e25c1f3a2	365353	1	practice	z	8	square	local	LVF	yes	absent	0	2000
5e5731e3e1e8b90e25c1f3a2	368811	1	practice	z	9	circle	global	LVF	yes	present	1	1375
5e5731e3e1e8b90e25c1f3a2	372020	1	practice	z	10	square	global	LVF	yes	present	1	1000
5e5731e3e1e8b90e25c1f3a2	374811	1	practice	z	11	circle	local	RVF	yes	present	1	858
5e5731e3e1e8b90e25c1f3a2	378702	1	practice	z	12	square	global	RVF	yes	absent	0	2000
5e5731e3e1e8b90e25c1f3a2	381887	1	practice	z	13	absent	absent	absent	no	present	0	1051
5e5731e3e1e8b90e25c1f3a2	385212	1	practice	z	14	square	global	LVF	yes	present	1	843
5e5731e3e1e8b90e25c1f3a2	389519	1	practice	z	15	square	local	LVF	yes	absent	0	2000
5e5731e3e1e8b90e25c1f3a2	392499	1	practice	z	16	circle	global	LVF	yes	present	1	913
5e5731e3e1e8b90e25c1f3a2	409013	2	main	z	1	square	local	LVF	yes	present	1	1113
5e5731e3e1e8b90e25c1f3a2	411390	2	main	z	2	square	global	LVF	yes	present	1	1047
5e5731e3e1e8b90e25c1f3a2	414473	2	main	z	3	circle	global	LVF	yes	present	1	1289
5e5731e3e1e8b90e25c1f3a2	416787	2	main	z	4	circle	global	LVF	yes	present	1	790
5e5731e3e1e8b90e25c1f3a2	419900	2	main	z	5	absent	absent	absent	no	absent	1	2000
5e5731e3e1e8b90e25c1f3a2	421850	2	main	z	6	square	global	LVF	yes	present	1	817
5e5731e3e1e8b90e25c1f3a2	424901	2	main	z	7	square	global	RVF	yes	absent	0	2000
5e5731e3e1e8b90e25c1f3a2	426914	2	main	z	8	square	global	RVF	yes	present	1	1097
5e5731e3e1e8b90e25c1f3a2	428979	2	main	z	9	square	local	RVF	yes	present	1	1046
5e5731e3e1e8b90e25c1f3a2	430911	2	main	z	10	circle	local	LVF	yes	present	1	911
5e5731e3e1e8b90e25c1f3a2	434117	2	main	z	11	absent	absent	absent	no	absent	1	2000
5e5731e3e1e8b90e25c1f3a2	436177	2	main	z	12	circle	global	LVF	yes	present	1	927
5e5731e3e1e8b90e25c1f3a2	438548	2	main	z	13	absent	absent	absent	no	present	0	1268
5e5731e3e1e8b90e25c1f3a2	440641	2	main	z	14	absent	absent	absent	no	present	0	1174
5e5731e3e1e8b90e25c1f3a2	443666	2	main	z	15	square	global	LVF	yes	absent	0	2000
5e5731e3e1e8b90e25c1f3a2	445750	2	main	z	16	square	local	RVF	yes	present	1	1084
5e5731e3e1e8b90e25c1f3a2	447772	2	main	z	17	circle	global	RVF	yes	present	1	1006
5e5731e3e1e8b90e25c1f3a2	449776	2	main	z	18	circle	local	RVF	yes	present	1	893
5e5731e3e1e8b90e25c1f3a2	451823	2	main	z	19	absent	absent	absent	no	present	0	1089
5e5731e3e1e8b90e25c1f3a2	454783	2	main	z	20	square	local	LVF	yes	absent	0	2000
5e5731e3e1e8b90e25c1f3a2	456991	2	main	z	21	circle	local	LVF	yes	present	1	859
5e5731e3e1e8b90e25c1f3a2	459111	2	main	z	22	circle	global	RVF	yes	present	1	1045
5e5731e3e1e8b90e25c1f3a2	461544	2	main	z	23	circle	global	RVF	yes	present	1	1462
5e5731e3e1e8b90e25c1f3a2	464600	2	main	z	24	square	local	RVF	yes	absent	0	2000
5e5731e3e1e8b90e25c1f3a2	467723	2	main	z	25	circle	global	RVF	yes	present	1	691
5e5731e3e1e8b90e25c1f3a2	471149	2	main	z	26	absent	absent	absent	no	absent	1	2000
5e5731e3e1e8b90e25c1f3a2	473152	2	main	z	27	absent	absent	absent	no	present	0	803
5e5731e3e1e8b90e25c1f3a2	477616	2	main	z	28	absent	absent	absent	no	absent	1	2000
5e5731e3e1e8b90e25c1f3a2	479696	2	main	z	29	square	local	LVF	yes	present	1	764
5e5731e3e1e8b90e25c1f3a2	482581	2	main	z	30	square	local	RVF	yes	present	1	1766
5e5731e3e1e8b90e25c1f3a2	485328	2	main	z	31	circle	global	LVF	yes	present	1	1946
5e5731e3e1e8b90e25c1f3a2	488682	2	main	z	32	circle	local	LVF	yes	absent	0	2000
5e5731e3e1e8b90e25c1f3a2	491682	2	main	z	33	circle	local	LVF	yes	absent	0	2000
5e5731e3e1e8b90e25c1f3a2	493803	2	main	z	34	square	global	RVF	yes	present	1	721
5e5731e3e1e8b90e25c1f3a2	495743	2	main	z	35	circle	local	RVF	yes	present	1	760
5e5731e3e1e8b90e25c1f3a2	497684	2	main	z	36	square	global	LVF	yes	present	1	868
5e5731e3e1e8b90e25c1f3a2	499645	2	main	z	37	circle	local	RVF	yes	present	1	962
5e5731e3e1e8b90e25c1f3a2	501657	2	main	z	38	square	local	LVF	yes	present	1	1075
5e5731e3e1e8b90e25c1f3a2	503514	2	main	z	39	square	global	RVF	yes	present	1	848
5e5731e3e1e8b90e25c1f3a2	505497	2	main	z	40	circle	local	RVF	yes	present	1	981
5e5731e3e1e8b90e25c1f3a2	508465	2	main	z	41	absent	absent	absent	no	absent	1	2000
5e5731e3e1e8b90e25c1f3a2	510445	2	main	z	42	square	global	RVF	yes	present	1	795
5e5731e3e1e8b90e25c1f3a2	512343	2	main	z	43	circle	global	RVF	yes	present	1	928
5e5731e3e1e8b90e25c1f3a2	515282	2	main	z	44	circle	local	LVF	yes	absent	0	2000
5e5731e3e1e8b90e25c1f3a2	518115	2	main	z	45	absent	absent	absent	no	absent	1	2000
5e5731e3e1e8b90e25c1f3a2	519884	2	main	z	46	square	local	RVF	yes	present	1	720
5e5731e3e1e8b90e25c1f3a2	522220	2	main	z	47	circle	global	RVF	yes	present	1	1022
5e5731e3e1e8b90e25c1f3a2	524634	2	main	z	48	circle	local	LVF	yes	present	1	1270
5e5731e3e1e8b90e25c1f3a2	526813	2	main	z	49	circle	global	RVF	yes	present	1	1099
5e5731e3e1e8b90e25c1f3a2	529879	2	main	z	50	absent	absent	absent	no	absent	1	2000
5e5731e3e1e8b90e25c1f3a2	532614	2	main	z	51	square	local	LVF	yes	present	1	1200
5e5731e3e1e8b90e25c1f3a2	561216	2	main	z	52	square	local	LVF	yes	present	1	1136
5e5731e3e1e8b90e25c1f3a2	564497	2	main	z	53	absent	absent	absent	no	absent	1	2000
5e5731e3e1e8b90e25c1f3a2	566267	2	main	z	54	absent	absent	absent	no	present	0	736
5e5731e3e1e8b90e25c1f3a2	568473	2	main	z	55	circle	local	LVF	yes	present	1	926
5e5731e3e1e8b90e25c1f3a2	570682	2	main	z	56	square	global	LVF	yes	present	1	985
5e5731e3e1e8b90e25c1f3a2	572821	2	main	z	57	square	local	RVF	yes	present	1	996
5e5731e3e1e8b90e25c1f3a2	574878	2	main	z	58	square	global	RVF	yes	present	1	997
5e5731e3e1e8b90e25c1f3a2	577914	2	main	z	59	square	local	RVF	yes	absent	0	2000
5e5731e3e1e8b90e25c1f3a2	580089	2	main	z	60	circle	global	LVF	yes	present	1	959
5e5731e3e1e8b90e25c1f3a2	582844	2	main	z	61	absent	absent	absent	no	present	0	1414
5e5731e3e1e8b90e25c1f3a2	584672	2	main	z	62	circle	local	RVF	yes	present	1	643
5e5731e3e1e8b90e25c1f3a2	587347	2	main	z	63	square	global	LVF	yes	absent	0	2000
5e5731e3e1e8b90e25c1f3a2	589002	2	main	z	64	circle	local	LVF	yes	present	1	673
5e5731e3e1e8b90e25c1f3a2	592347	2	main	z	65	square	local	RVF	yes	absent	0	2000
5e5731e3e1e8b90e25c1f3a2	595396	2	main	z	66	square	global	RVF	yes	absent	0	2000
5e5731e3e1e8b90e25c1f3a2	597729	2	main	z	67	circle	local	RVF	yes	present	1	1216
5e5731e3e1e8b90e25c1f3a2	599981	2	main	z	68	circle	global	RVF	yes	present	1	1119
5e5731e3e1e8b90e25c1f3a2	602203	2	main	z	69	absent	absent	absent	no	present	0	1157
5e5731e3e1e8b90e25c1f3a2	605280	2	main	z	70	circle	local	RVF	yes	absent	0	2000
5e5731e3e1e8b90e25c1f3a2	607273	2	main	z	71	square	local	LVF	yes	present	1	847
5e5731e3e1e8b90e25c1f3a2	610763	2	main	z	72	circle	global	LVF	yes	absent	0	2000
5e5731e3e1e8b90e25c1f3a2	612597	2	main	z	73	square	local	LVF	yes	present	1	401
5e5731e3e1e8b90e25c1f3a2	614853	2	main	z	74	square	global	RVF	yes	present	1	672
5e5731e3e1e8b90e25c1f3a2	616722	2	main	z	75	square	global	LVF	yes	present	1	846
5e5731e3e1e8b90e25c1f3a2	618547	2	main	z	76	circle	global	LVF	yes	present	1	802
5e5731e3e1e8b90e25c1f3a2	620471	2	main	z	77	square	global	LVF	yes	present	1	823
5e5731e3e1e8b90e25c1f3a2	623449	2	main	z	78	absent	absent	absent	no	absent	1	2000
5e5731e3e1e8b90e25c1f3a2	627973	2	main	z	79	circle	global	LVF	yes	present	1	1708
5e5731e3e1e8b90e25c1f3a2	630343	2	main	z	80	circle	local	RVF	yes	present	1	914
5e5731e3e1e8b90e25c1f3a2	778533	3	practice	slash	1	circle	local	RVF	yes	present	1	1473
5e5731e3e1e8b90e25c1f3a2	781867	3	practice	slash	2	circle	local	RVF	yes	present	1	743
5e5731e3e1e8b90e25c1f3a2	785224	3	practice	slash	3	circle	global	LVF	yes	present	1	898
5e5731e3e1e8b90e25c1f3a2	787876	3	practice	slash	4	square	local	LVF	yes	present	1	716
5e5731e3e1e8b90e25c1f3a2	791023	3	practice	slash	5	absent	absent	absent	no	present	0	946
5e5731e3e1e8b90e25c1f3a2	794181	3	practice	slash	6	square	global	RVF	yes	present	1	1102
5e5731e3e1e8b90e25c1f3a2	797306	3	practice	slash	7	circle	global	RVF	yes	present	1	980
5e5731e3e1e8b90e25c1f3a2	800367	3	practice	slash	8	absent	absent	absent	no	present	0	1091
5e5731e3e1e8b90e25c1f3a2	803311	3	practice	slash	9	absent	absent	absent	no	present	0	859
5e5731e3e1e8b90e25c1f3a2	808344	3	practice	slash	10	square	global	LVF	yes	present	1	784
5e5731e3e1e8b90e25c1f3a2	811554	3	practice	slash	11	circle	global	RVF	yes	present	1	995
5e5731e3e1e8b90e25c1f3a2	814615	3	practice	slash	12	absent	absent	absent	no	present	0	940
5e5731e3e1e8b90e25c1f3a2	818545	3	practice	slash	13	circle	global	LVF	yes	absent	0	2000
5e5731e3e1e8b90e25c1f3a2	822082	3	practice	slash	14	square	global	LVF	yes	present	1	973
5e5731e3e1e8b90e25c1f3a2	824872	3	practice	slash	15	circle	local	RVF	yes	present	1	680
5e5731e3e1e8b90e25c1f3a2	827776	3	practice	slash	16	square	local	LVF	yes	present	1	735
5e5731e3e1e8b90e25c1f3a2	920782	4	main	slash	1	absent	absent	absent	no	present	0	1977
5e5731e3e1e8b90e25c1f3a2	922785	4	main	slash	2	square	local	LVF	yes	present	1	897
5e5731e3e1e8b90e25c1f3a2	924547	4	main	slash	3	circle	global	RVF	yes	present	1	659
5e5731e3e1e8b90e25c1f3a2	926162	4	main	slash	4	absent	absent	absent	no	present	0	707
5e5731e3e1e8b90e25c1f3a2	929105	4	main	slash	5	square	global	LVF	yes	absent	0	2000
5e5731e3e1e8b90e25c1f3a2	931711	4	main	slash	6	circle	global	RVF	yes	present	1	706
5e5731e3e1e8b90e25c1f3a2	933649	4	main	slash	7	square	global	RVF	yes	present	1	1044
5e5731e3e1e8b90e25c1f3a2	935349	4	main	slash	8	circle	global	LVF	yes	present	1	728
5e5731e3e1e8b90e25c1f3a2	937235	4	main	slash	9	square	global	RVF	yes	present	1	698
5e5731e3e1e8b90e25c1f3a2	940204	4	main	slash	10	absent	absent	absent	no	absent	1	2000
5e5731e3e1e8b90e25c1f3a2	942565	4	main	slash	11	circle	global	RVF	yes	present	1	444
5e5731e3e1e8b90e25c1f3a2	944315	4	main	slash	12	circle	local	LVF	yes	present	1	677
5e5731e3e1e8b90e25c1f3a2	945951	4	main	slash	13	circle	local	RVF	yes	present	1	730
5e5731e3e1e8b90e25c1f3a2	947905	4	main	slash	14	circle	local	RVF	yes	present	1	1034
5e5731e3e1e8b90e25c1f3a2	951204	4	main	slash	15	absent	absent	absent	no	absent	1	2000
5e5731e3e1e8b90e25c1f3a2	953198	4	main	slash	16	absent	absent	absent	no	present	0	794
5e5731e3e1e8b90e25c1f3a2	954867	4	main	slash	17	circle	local	RVF	yes	present	1	713
5e5731e3e1e8b90e25c1f3a2	956554	4	main	slash	18	circle	global	LVF	yes	present	1	717
5e5731e3e1e8b90e25c1f3a2	958201	4	main	slash	19	square	local	RVF	yes	present	1	730
5e5731e3e1e8b90e25c1f3a2	960384	4	main	slash	20	square	local	LVF	yes	present	1	1297
5e5731e3e1e8b90e25c1f3a2	963538	4	main	slash	21	absent	absent	absent	no	absent	1	2000
5e5731e3e1e8b90e25c1f3a2	965387	4	main	slash	22	square	global	LVF	yes	present	1	649
5e5731e3e1e8b90e25c1f3a2	967170	4	main	slash	23	square	global	RVF	yes	present	1	849
5e5731e3e1e8b90e25c1f3a2	969140	4	main	slash	24	circle	global	LVF	yes	present	1	1101
5e5731e3e1e8b90e25c1f3a2	972005	4	main	slash	25	absent	absent	absent	no	absent	1	2000
5e5731e3e1e8b90e25c1f3a2	973671	4	main	slash	26	square	global	LVF	yes	present	1	767
5e5731e3e1e8b90e25c1f3a2	975444	4	main	slash	27	absent	absent	absent	no	present	0	739
5e5731e3e1e8b90e25c1f3a2	977669	4	main	slash	28	square	local	LVF	yes	present	1	1182
5e5731e3e1e8b90e25c1f3a2	979733	4	main	slash	29	circle	global	LVF	yes	present	1	1045
5e5731e3e1e8b90e25c1f3a2	981694	4	main	slash	30	circle	local	LVF	yes	present	1	956
5e5731e3e1e8b90e25c1f3a2	983697	4	main	slash	31	square	local	RVF	yes	present	1	727
5e5731e3e1e8b90e25c1f3a2	986661	4	main	slash	32	square	local	LVF	yes	absent	0	2000
5e5731e3e1e8b90e25c1f3a2	988833	4	main	slash	33	square	local	RVF	yes	present	1	870
5e5731e3e1e8b90e25c1f3a2	990505	4	main	slash	34	circle	local	LVF	yes	present	1	684
5e5731e3e1e8b90e25c1f3a2	991939	4	main	slash	35	circle	local	LVF	yes	present	1	551
5e5731e3e1e8b90e25c1f3a2	994854	4	main	slash	36	square	global	RVF	yes	absent	0	2000
5e5731e3e1e8b90e25c1f3a2	996963	4	main	slash	37	circle	global	RVF	yes	present	1	710
5e5731e3e1e8b90e25c1f3a2	998725	4	main	slash	38	square	local	RVF	yes	present	1	822
5e5731e3e1e8b90e25c1f3a2	1000414	4	main	slash	39	circle	local	RVF	yes	present	1	776
5e5731e3e1e8b90e25c1f3a2	1002427	4	main	slash	40	square	global	LVF	yes	present	1	1141
5e5731e3e1e8b90e25c1f3a2	1005337	4	main	slash	41	square	local	RVF	yes	absent	0	2000
5e5731e3e1e8b90e25c1f3a2	1008787	4	main	slash	42	circle	local	LVF	yes	absent	0	2000
5e5731e3e1e8b90e25c1f3a2	1017023	4	main	slash	43	square	local	LVF	yes	present	1	604
5e5731e3e1e8b90e25c1f3a2	1018566	4	main	slash	44	circle	global	LVF	yes	present	1	563
5e5731e3e1e8b90e25c1f3a2	1020339	4	main	slash	45	circle	local	LVF	yes	present	1	969
5e5731e3e1e8b90e25c1f3a2	1023937	4	main	slash	46	absent	absent	absent	no	absent	1	2000
5e5731e3e1e8b90e25c1f3a2	1025742	4	main	slash	47	square	local	LVF	yes	present	1	487
5e5731e3e1e8b90e25c1f3a2	1027262	4	main	slash	48	absent	absent	absent	no	present	0	593
5e5731e3e1e8b90e25c1f3a2	1028766	4	main	slash	49	square	global	RVF	yes	present	1	648
5e5731e3e1e8b90e25c1f3a2	1031608	4	main	slash	50	absent	absent	absent	no	absent	1	2000
5e5731e3e1e8b90e25c1f3a2	1033227	4	main	slash	51	square	global	LVF	yes	present	1	707
5e5731e3e1e8b90e25c1f3a2	1034916	4	main	slash	52	absent	absent	absent	no	present	0	829
5e5731e3e1e8b90e25c1f3a2	1036625	4	main	slash	53	circle	global	RVF	yes	present	1	888
5e5731e3e1e8b90e25c1f3a2	1038155	4	main	slash	54	circle	local	RVF	yes	present	1	685
5e5731e3e1e8b90e25c1f3a2	1039844	4	main	slash	55	circle	global	LVF	yes	present	1	659
5e5731e3e1e8b90e25c1f3a2	1042686	4	main	slash	56	square	global	LVF	yes	absent	0	2000
5e5731e3e1e8b90e25c1f3a2	1044594	4	main	slash	57	circle	global	RVF	yes	present	1	675
5e5731e3e1e8b90e25c1f3a2	1046198	4	main	slash	58	square	global	LVF	yes	present	1	613
5e5731e3e1e8b90e25c1f3a2	1047804	4	main	slash	59	square	global	RVF	yes	present	1	718
5e5731e3e1e8b90e25c1f3a2	1050602	4	main	slash	60	square	local	LVF	yes	absent	0	2000
5e5731e3e1e8b90e25c1f3a2	1053902	4	main	slash	61	square	global	RVF	yes	absent	0	2000
5e5731e3e1e8b90e25c1f3a2	1055450	4	main	slash	62	circle	global	RVF	yes	present	1	365
5e5731e3e1e8b90e25c1f3a2	1057295	4	main	slash	63	circle	global	LVF	yes	present	1	691
5e5731e3e1e8b90e25c1f3a2	1059029	4	main	slash	64	square	local	RVF	yes	present	1	755
5e5731e3e1e8b90e25c1f3a2	1060544	4	main	slash	65	square	global	LVF	yes	present	1	609
5e5731e3e1e8b90e25c1f3a2	1062180	4	main	slash	66	absent	absent	absent	no	present	0	745
5e5731e3e1e8b90e25c1f3a2	1065085	4	main	slash	67	circle	local	RVF	yes	absent	0	2000
5e5731e3e1e8b90e25c1f3a2	1067344	4	main	slash	68	circle	global	LVF	yes	present	1	973
5e5731e3e1e8b90e25c1f3a2	1069409	4	main	slash	69	circle	local	LVF	yes	present	1	674
5e5731e3e1e8b90e25c1f3a2	1070999	4	main	slash	70	square	global	RVF	yes	present	1	714
5e5731e3e1e8b90e25c1f3a2	1072739	4	main	slash	71	square	local	LVF	yes	present	1	888
5e5731e3e1e8b90e25c1f3a2	1074495	4	main	slash	72	absent	absent	absent	no	present	0	605
5e5731e3e1e8b90e25c1f3a2	1076115	4	main	slash	73	circle	global	RVF	yes	present	1	747
5e5731e3e1e8b90e25c1f3a2	1077783	4	main	slash	74	circle	local	RVF	yes	present	1	782
5e5731e3e1e8b90e25c1f3a2	1079307	4	main	slash	75	circle	local	RVF	yes	present	1	670
5e5731e3e1e8b90e25c1f3a2	1080761	4	main	slash	76	square	local	RVF	yes	present	1	593
5e5731e3e1e8b90e25c1f3a2	1083603	4	main	slash	77	absent	absent	absent	no	absent	1	2000
5e5731e3e1e8b90e25c1f3a2	1085858	4	main	slash	78	circle	local	LVF	yes	present	1	772
5e5731e3e1e8b90e25c1f3a2	1088785	4	main	slash	79	absent	absent	absent	no	absent	1	2000
5e5731e3e1e8b90e25c1f3a2	1090365	4	main	slash	80	square	local	RVF	yes	present	1	647
612d20ea1043719545f90f62	182958	1	practice	slash	1	absent	absent	absent	no	absent	1	2000
612d20ea1043719545f90f62	187212	1	practice	slash	2	circle	local	RVF	yes	present	1	901
612d20ea1043719545f90f62	192902	1	practice	slash	3	square	global	RVF	yes	present	1	1371
612d20ea1043719545f90f62	199122	1	practice	slash	4	circle	global	RVF	yes	present	1	1103
612d20ea1043719545f90f62	203972	1	practice	slash	5	absent	absent	absent	no	absent	1	2000
612d20ea1043719545f90f62	210209	1	practice	slash	6	absent	absent	absent	no	absent	1	2000
612d20ea1043719545f90f62	213791	1	practice	slash	7	square	global	LVF	yes	present	1	829
612d20ea1043719545f90f62	218891	1	practice	slash	8	circle	global	RVF	yes	present	1	958
612d20ea1043719545f90f62	222752	1	practice	slash	9	square	local	LVF	yes	present	1	799
612d20ea1043719545f90f62	226231	1	practice	slash	10	circle	global	LVF	yes	present	1	1027
612d20ea1043719545f90f62	229382	1	practice	slash	11	square	global	LVF	yes	present	1	608
612d20ea1043719545f90f62	233592	1	practice	slash	12	circle	local	RVF	yes	present	1	832
612d20ea1043719545f90f62	238129	1	practice	slash	13	absent	absent	absent	no	absent	1	2000
612d20ea1043719545f90f62	241071	1	practice	slash	14	circle	local	RVF	yes	present	1	990
612d20ea1043719545f90f62	244642	1	practice	slash	15	square	local	LVF	yes	present	1	691
612d20ea1043719545f90f62	248391	1	practice	slash	16	circle	global	LVF	yes	present	1	1255
612d20ea1043719545f90f62	256738	2	main	slash	1	square	local	RVF	yes	present	1	965
612d20ea1043719545f90f62	259728	2	main	slash	2	circle	global	LVF	yes	present	1	938
612d20ea1043719545f90f62	262848	2	main	slash	3	square	global	LVF	yes	present	1	1039
612d20ea1043719545f90f62	266728	2	main	slash	4	absent	absent	absent	no	absent	1	2000
612d20ea1043719545f90f62	269897	2	main	slash	5	absent	absent	absent	no	absent	1	2000
612d20ea1043719545f90f62	272368	2	main	slash	6	square	local	RVF	yes	present	1	719
612d20ea1043719545f90f62	275478	2	main	slash	7	square	global	RVF	yes	present	1	860
612d20ea1043719545f90f62	278138	2	main	slash	8	square	global	RVF	yes	present	1	818
612d20ea1043719545f90f62	280938	2	main	slash	9	square	local	RVF	yes	present	1	850
612d20ea1043719545f90f62	285207	2	main	slash	10	absent	absent	absent	no	absent	1	2000
612d20ea1043719545f90f62	287378	2	main	slash	11	circle	global	RVF	yes	present	1	1102
612d20ea1043719545f90f62	289908	2	main	slash	12	circle	global	RVF	yes	present	1	830
612d20ea1043719545f90f62	293168	2	main	slash	13	circle	local	RVF	yes	present	1	755
612d20ea1043719545f90f62	296048	2	main	slash	14	circle	local	LVF	yes	present	1	749
612d20ea1043719545f90f62	298708	2	main	slash	15	square	local	RVF	yes	present	1	724
612d20ea1043719545f90f62	301118	2	main	slash	16	square	local	LVF	yes	present	1	716
612d20ea1043719545f90f62	303288	2	main	slash	17	circle	local	LVF	yes	present	1	784
612d20ea1043719545f90f62	306008	2	main	slash	18	square	global	RVF	yes	present	1	1319
612d20ea1043719545f90f62	307958	2	main	slash	19	circle	global	RVF	yes	present	1	751
612d20ea1043719545f90f62	309999	2	main	slash	20	absent	absent	absent	no	present	0	840
612d20ea1043719545f90f62	311779	2	main	slash	21	circle	local	RVF	yes	present	1	702
612d20ea1043719545f90f62	314138	2	main	slash	22	square	global	LVF	yes	present	1	1110
612d20ea1043719545f90f62	315918	2	main	slash	23	square	global	RVF	yes	present	1	739
612d20ea1043719545f90f62	317968	2	main	slash	24	square	local	LVF	yes	present	1	1004
612d20ea1043719545f90f62	321049	2	main	slash	25	absent	absent	absent	no	absent	1	2000
612d20ea1043719545f90f62	322888	2	main	slash	26	square	global	LVF	yes	present	1	654
612d20ea1043719545f90f62	324869	2	main	slash	27	circle	global	LVF	yes	present	1	800
612d20ea1043719545f90f62	326558	2	main	slash	28	square	global	LVF	yes	present	1	638
612d20ea1043719545f90f62	328128	2	main	slash	29	circle	global	RVF	yes	present	1	541
612d20ea1043719545f90f62	331239	2	main	slash	30	absent	absent	absent	no	absent	1	2000
612d20ea1043719545f90f62	332838	2	main	slash	31	square	local	LVF	yes	present	1	514
612d20ea1043719545f90f62	334949	2	main	slash	32	circle	local	LVF	yes	present	1	1006
612d20ea1043719545f90f62	336692	2	main	slash	33	circle	local	RVF	yes	present	1	746
612d20ea1043719545f90f62	338447	2	main	slash	34	circle	local	LVF	yes	present	1	670
612d20ea1043719545f90f62	340399	2	main	slash	35	circle	global	LVF	yes	present	1	870
612d20ea1043719545f90f62	342269	2	main	slash	36	circle	local	RVF	yes	present	1	789
612d20ea1043719545f90f62	343960	2	main	slash	37	square	local	LVF	yes	present	1	694
612d20ea1043719545f90f62	346950	2	main	slash	38	absent	absent	absent	no	absent	1	2000
612d20ea1043719545f90f62	350036	2	main	slash	39	absent	absent	absent	no	absent	1	2000
612d20ea1043719545f90f62	352209	2	main	slash	40	circle	global	LVF	yes	present	1	855
612d20ea1043719545f90f62	353769	2	main	slash	41	circle	global	LVF	yes	present	1	514
612d20ea1043719545f90f62	355549	2	main	slash	42	circle	local	RVF	yes	present	1	726
612d20ea1043719545f90f62	357409	2	main	slash	43	circle	global	RVF	yes	present	1	852
612d20ea1043719545f90f62	359441	2	main	slash	44	circle	local	LVF	yes	present	1	798
612d20ea1043719545f90f62	360959	2	main	slash	45	circle	local	LVF	yes	present	1	532
612d20ea1043719545f90f62	362669	2	main	slash	46	circle	global	LVF	yes	present	1	674
612d20ea1043719545f90f62	364449	2	main	slash	47	square	local	RVF	yes	present	1	753
612d20ea1043719545f90f62	366079	2	main	slash	48	square	global	LVF	yes	present	1	632
612d20ea1043719545f90f62	369115	2	main	slash	49	absent	absent	absent	no	absent	1	2000
612d20ea1043719545f90f62	370981	2	main	slash	50	square	global	LVF	yes	present	1	662
612d20ea1043719545f90f62	372498	2	main	slash	51	circle	global	LVF	yes	present	1	506
612d20ea1043719545f90f62	374008	2	main	slash	52	circle	local	RVF	yes	present	1	523
612d20ea1043719545f90f62	375409	2	main	slash	53	circle	local	LVF	yes	present	1	405
612d20ea1043719545f90f62	378439	2	main	slash	54	absent	absent	absent	no	absent	1	2000
612d20ea1043719545f90f62	380259	2	main	slash	55	circle	local	RVF	yes	present	1	652
612d20ea1043719545f90f62	383274	2	main	slash	56	absent	absent	absent	no	absent	1	2000
612d20ea1043719545f90f62	385039	2	main	slash	57	square	local	RVF	yes	present	1	646
612d20ea1043719545f90f62	386849	2	main	slash	58	circle	global	RVF	yes	present	1	721
612d20ea1043719545f90f62	388450	2	main	slash	59	circle	local	LVF	yes	present	1	587
612d20ea1043719545f90f62	390180	2	main	slash	60	circle	global	RVF	yes	present	1	683
612d20ea1043719545f90f62	391889	2	main	slash	61	circle	global	LVF	yes	present	1	641
612d20ea1043719545f90f62	393530	2	main	slash	62	square	global	LVF	yes	present	1	613
612d20ea1043719545f90f62	395180	2	main	slash	63	square	global	RVF	yes	present	1	580
612d20ea1043719545f90f62	398218	2	main	slash	64	absent	absent	absent	no	absent	1	2000
612d20ea1043719545f90f62	400179	2	main	slash	65	square	local	RVF	yes	present	1	709
612d20ea1043719545f90f62	402450	2	main	slash	66	square	global	LVF	yes	present	1	844
612d20ea1043719545f90f62	404159	2	main	slash	67	square	global	RVF	yes	present	1	586
612d20ea1043719545f90f62	406110	2	main	slash	68	square	local	LVF	yes	present	1	819
612d20ea1043719545f90f62	407680	2	main	slash	69	circle	local	RVF	yes	present	1	554
612d20ea1043719545f90f62	410878	2	main	slash	70	absent	absent	absent	no	absent	1	2000
612d20ea1043719545f90f62	412769	2	main	slash	71	square	local	LVF	yes	present	1	607
612d20ea1043719545f90f62	414410	2	main	slash	72	square	global	RVF	yes	present	1	562
612d20ea1043719545f90f62	415950	2	main	slash	73	circle	global	RVF	yes	present	1	534
612d20ea1043719545f90f62	418229	2	main	slash	74	square	local	LVF	yes	present	1	1280
612d20ea1043719545f90f62	420010	2	main	slash	75	square	local	RVF	yes	present	1	659
612d20ea1043719545f90f62	421771	2	main	slash	76	square	local	LVF	yes	present	1	736
612d20ea1043719545f90f62	424770	2	main	slash	77	absent	absent	absent	no	absent	1	2000
612d20ea1043719545f90f62	427940	2	main	slash	78	absent	absent	absent	no	absent	1	2000
612d20ea1043719545f90f62	430150	2	main	slash	79	square	global	RVF	yes	present	1	1059
612d20ea1043719545f90f62	432160	2	main	slash	80	absent	absent	absent	no	present	0	884
612d20ea1043719545f90f62	458247	3	practice	z	1	absent	absent	absent	no	absent	1	2000
612d20ea1043719545f90f62	461164	3	practice	z	2	circle	global	RVF	yes	present	1	682
612d20ea1043719545f90f62	463976	3	practice	z	3	square	global	LVF	yes	present	1	641
612d20ea1043719545f90f62	467084	3	practice	z	4	circle	global	LVF	yes	present	1	1048
612d20ea1043719545f90f62	469805	3	practice	z	5	square	local	LVF	yes	present	1	616
612d20ea1043719545f90f62	473940	3	practice	z	6	absent	absent	absent	no	absent	1	2000
612d20ea1043719545f90f62	478010	3	practice	z	7	absent	absent	absent	no	absent	1	2000
612d20ea1043719545f90f62	480805	3	practice	z	8	square	global	RVF	yes	present	1	742
612d20ea1043719545f90f62	483764	3	practice	z	9	circle	global	LVF	yes	present	1	616
612d20ea1043719545f90f62	486795	3	practice	z	10	circle	local	RVF	yes	present	1	861
612d20ea1043719545f90f62	489925	3	practice	z	11	circle	local	RVF	yes	present	1	839
612d20ea1043719545f90f62	493393	3	practice	z	12	square	global	LVF	yes	present	1	889
612d20ea1043719545f90f62	496075	3	practice	z	13	circle	local	RVF	yes	present	1	601
612d20ea1043719545f90f62	498854	3	practice	z	14	square	local	LVF	yes	present	1	729
612d20ea1043719545f90f62	501694	3	practice	z	15	circle	global	RVF	yes	present	1	734
612d20ea1043719545f90f62	505695	3	practice	z	16	absent	absent	absent	no	absent	1	2000
612d20ea1043719545f90f62	525789	4	main	z	1	absent	absent	absent	no	absent	1	2000
612d20ea1043719545f90f62	527430	4	main	z	2	circle	global	LVF	yes	present	1	523
612d20ea1043719545f90f62	530052	4	main	z	3	square	local	LVF	yes	present	1	625
612d20ea1043719545f90f62	531695	4	main	z	4	circle	local	RVF	yes	present	1	616
612d20ea1043719545f90f62	533533	4	main	z	5	square	global	RVF	yes	present	1	802
612d20ea1043719545f90f62	536547	4	main	z	6	absent	absent	absent	no	absent	1	2000
612d20ea1043719545f90f62	538711	4	main	z	7	absent	absent	absent	no	present	0	979
612d20ea1043719545f90f62	541533	4	main	z	8	square	global	RVF	yes	present	1	732
612d20ea1043719545f90f62	543241	4	main	z	9	circle	local	RVF	yes	present	1	656
612d20ea1043719545f90f62	546370	4	main	z	10	absent	absent	absent	no	absent	1	2000
612d20ea1043719545f90f62	548081	4	main	z	11	square	global	LVF	yes	present	1	759
612d20ea1043719545f90f62	549891	4	main	z	12	square	local	RVF	yes	present	1	733
612d20ea1043719545f90f62	551381	4	main	z	13	square	global	LVF	yes	present	1	573
612d20ea1043719545f90f62	553022	4	main	z	14	circle	local	RVF	yes	present	1	631
612d20ea1043719545f90f62	554541	4	main	z	15	circle	local	LVF	yes	present	1	581
612d20ea1043719545f90f62	556211	4	main	z	16	square	local	LVF	yes	present	1	667
612d20ea1043719545f90f62	559363	4	main	z	17	absent	absent	absent	no	absent	1	2000
612d20ea1043719545f90f62	561071	4	main	z	18	square	global	RVF	yes	present	1	789
612d20ea1043719545f90f62	562591	4	main	z	19	circle	global	LVF	yes	present	1	558
612d20ea1043719545f90f62	564121	4	main	z	20	circle	local	LVF	yes	present	1	571
612d20ea1043719545f90f62	565991	4	main	z	21	circle	global	RVF	yes	present	1	907
612d20ea1043719545f90f62	567631	4	main	z	22	circle	local	LVF	yes	present	1	712
612d20ea1043719545f90f62	570604	4	main	z	23	absent	absent	absent	no	absent	1	2000
612d20ea1043719545f90f62	572231	4	main	z	24	square	local	RVF	yes	present	1	626
612d20ea1043719545f90f62	573771	4	main	z	25	square	global	RVF	yes	present	1	665
612d20ea1043719545f90f62	575362	4	main	z	26	circle	global	LVF	yes	present	1	670
612d20ea1043719545f90f62	576974	4	main	z	27	square	global	LVF	yes	present	1	665
612d20ea1043719545f90f62	578974	4	main	z	28	square	local	LVF	yes	present	1	1031
612d20ea1043719545f90f62	580611	4	main	z	29	square	local	RVF	yes	present	1	600
612d20ea1043719545f90f62	582233	4	main	z	30	circle	global	RVF	yes	present	1	620
612d20ea1043719545f90f62	585248	4	main	z	31	absent	absent	absent	no	absent	1	2000
612d20ea1043719545f90f62	587042	4	main	z	32	circle	global	RVF	yes	present	1	610
612d20ea1043719545f90f62	588832	4	main	z	33	square	local	RVF	yes	present	1	899
612d20ea1043719545f90f62	590382	4	main	z	34	square	global	LVF	yes	present	1	614
612d20ea1043719545f90f62	592292	4	main	z	35	circle	local	LVF	yes	present	1	990
612d20ea1043719545f90f62	593932	4	main	z	36	square	local	LVF	yes	present	1	778
612d20ea1043719545f90f62	595513	4	main	z	37	circle	local	RVF	yes	present	1	640
612d20ea1043719545f90f62	598439	4	main	z	38	absent	absent	absent	no	absent	1	2000
612d20ea1043719545f90f62	600272	4	main	z	39	circle	global	LVF	yes	present	1	631
612d20ea1043719545f90f62	601803	4	main	z	40	circle	global	RVF	yes	present	1	593
612d20ea1043719545f90f62	603302	4	main	z	41	square	global	RVF	yes	present	1	575
612d20ea1043719545f90f62	604792	4	main	z	42	square	global	RVF	yes	present	1	581
612d20ea1043719545f90f62	606292	4	main	z	43	square	local	LVF	yes	present	1	580
612d20ea1043719545f90f62	607852	4	main	z	44	circle	local	LVF	yes	present	1	606
612d20ea1043719545f90f62	610814	4	main	z	45	absent	absent	absent	no	absent	1	2000
612d20ea1043719545f90f62	612422	4	main	z	46	square	global	RVF	yes	present	1	589
612d20ea1043719545f90f62	613893	4	main	z	47	circle	global	LVF	yes	present	1	575
612d20ea1043719545f90f62	615404	4	main	z	48	circle	local	RVF	yes	present	1	583
612d20ea1043719545f90f62	618303	4	main	z	49	absent	absent	absent	no	absent	1	2000
612d20ea1043719545f90f62	622005	4	main	z	50	absent	absent	absent	no	absent	1	2000
612d20ea1043719545f90f62	623492	4	main	z	51	square	local	LVF	yes	present	1	568
612d20ea1043719545f90f62	625352	4	main	z	52	circle	global	LVF	yes	present	1	844
612d20ea1043719545f90f62	628411	4	main	z	53	absent	absent	absent	no	absent	1	2000
612d20ea1043719545f90f62	629923	4	main	z	54	square	local	RVF	yes	present	1	560
612d20ea1043719545f90f62	631742	4	main	z	55	square	global	LVF	yes	present	1	946
612d20ea1043719545f90f62	633312	4	main	z	56	square	local	RVF	yes	present	1	631
612d20ea1043719545f90f62	634822	4	main	z	57	square	local	LVF	yes	present	1	607
612d20ea1043719545f90f62	636423	4	main	z	58	circle	local	LVF	yes	present	1	689
612d20ea1043719545f90f62	638324	4	main	z	59	circle	global	LVF	yes	present	1	988
612d20ea1043719545f90f62	641453	4	main	z	60	square	global	LVF	yes	absent	0	2000
612d20ea1043719545f90f62	644638	4	main	z	61	absent	absent	absent	no	absent	1	2000
612d20ea1043719545f90f62	646133	4	main	z	62	circle	local	RVF	yes	present	1	542
612d20ea1043719545f90f62	649075	4	main	z	63	absent	absent	absent	no	absent	1	2000
612d20ea1043719545f90f62	652159	4	main	z	64	absent	absent	absent	no	absent	1	2000
612d20ea1043719545f90f62	653732	4	main	z	65	circle	global	RVF	yes	present	1	637
612d20ea1043719545f90f62	655243	4	main	z	66	circle	local	RVF	yes	present	1	564
612d20ea1043719545f90f62	656812	4	main	z	67	square	local	LVF	yes	present	1	682
612d20ea1043719545f90f62	659748	4	main	z	68	absent	absent	absent	no	absent	1	2000
612d20ea1043719545f90f62	662162	4	main	z	69	square	global	LVF	yes	present	1	928
612d20ea1043719545f90f62	663653	4	main	z	70	square	local	RVF	yes	present	1	584
612d20ea1043719545f90f62	665102	4	main	z	71	circle	global	RVF	yes	present	1	549
612d20ea1043719545f90f62	666502	4	main	z	72	circle	local	LVF	yes	present	1	482
612d20ea1043719545f90f62	668003	4	main	z	73	circle	local	RVF	yes	present	1	598
612d20ea1043719545f90f62	669836	4	main	z	74	square	local	RVF	yes	present	1	511
612d20ea1043719545f90f62	671363	4	main	z	75	circle	global	RVF	yes	present	1	639
612d20ea1043719545f90f62	673212	4	main	z	76	square	global	LVF	yes	present	1	872
612d20ea1043719545f90f62	674805	4	main	z	77	circle	local	LVF	yes	present	1	679
612d20ea1043719545f90f62	676595	4	main	z	78	circle	global	LVF	yes	present	1	885
612d20ea1043719545f90f62	678053	4	main	z	79	square	global	RVF	yes	present	1	592
612d20ea1043719545f90f62	679504	4	main	z	80	circle	global	RVF	yes	present	1	574
62b9cf42a63194f71fc0a393	212125	1	practice	z	1	circle	global	RVF	yes	present	1	575
62b9cf42a63194f71fc0a393	225586	1	practice	z	2	absent	absent	absent	no	present	0	356
62b9cf42a63194f71fc0a393	229503	1	practice	z	3	square	local	LVF	yes	present	1	320
62b9cf42a63194f71fc0a393	233018	1	practice	z	4	circle	local	RVF	yes	present	1	428
62b9cf42a63194f71fc0a393	238018	1	practice	z	5	circle	global	RVF	yes	present	1	417
62b9cf42a63194f71fc0a393	241372	1	practice	z	6	square	local	LVF	yes	present	1	415
62b9cf42a63194f71fc0a393	244553	1	practice	z	7	circle	global	LVF	yes	present	1	414
62b9cf42a63194f71fc0a393	247454	1	practice	z	8	circle	local	RVF	yes	present	1	416
62b9cf42a63194f71fc0a393	250035	1	practice	z	9	square	global	LVF	yes	present	1	277
62b9cf42a63194f71fc0a393	252919	1	practice	z	10	square	global	LVF	yes	present	1	495
62b9cf42a63194f71fc0a393	256677	1	practice	z	11	absent	absent	absent	no	present	0	344
62b9cf42a63194f71fc0a393	260129	1	practice	z	12	circle	local	RVF	yes	present	1	228
62b9cf42a63194f71fc0a393	264210	1	practice	z	13	absent	absent	absent	no	present	0	1800
62b9cf42a63194f71fc0a393	268874	1	practice	z	14	absent	absent	absent	no	absent	1	2000
62b9cf42a63194f71fc0a393	271766	1	practice	z	15	circle	global	LVF	yes	present	1	384
62b9cf42a63194f71fc0a393	274772	1	practice	z	16	square	global	RVF	yes	present	1	568
62b9cf42a63194f71fc0a393	287483	2	main	z	1	circle	local	LVF	yes	present	1	355
62b9cf42a63194f71fc0a393	293082	2	main	z	2	square	local	RVF	yes	present	1	565
62b9cf42a63194f71fc0a393	296099	2	main	z	3	square	global	RVF	yes	present	1	418
62b9cf42a63194f71fc0a393	298959	2	main	z	4	circle	local	LVF	yes	present	1	685
62b9cf42a63194f71fc0a393	301436	2	main	z	5	circle	local	RVF	yes	present	1	551
62b9cf42a63194f71fc0a393	305557	2	main	z	6	absent	absent	absent	no	absent	1	2000
62b9cf42a63194f71fc0a393	308037	2	main	z	7	circle	global	RVF	yes	present	1	386
62b9cf42a63194f71fc0a393	310487	2	main	z	8	square	global	LVF	yes	present	1	495
62b9cf42a63194f71fc0a393	313063	2	main	z	9	square	local	LVF	yes	present	1	690
62b9cf42a63194f71fc0a393	315621	2	main	z	10	square	local	LVF	yes	present	1	629
62b9cf42a63194f71fc0a393	318339	2	main	z	11	circle	local	LVF	yes	present	1	743
62b9cf42a63194f71fc0a393	322029	2	main	z	12	absent	absent	absent	no	absent	1	2000
62b9cf42a63194f71fc0a393	324511	2	main	z	13	square	global	RVF	yes	present	1	917
62b9cf42a63194f71fc0a393	328639	2	main	z	14	absent	absent	absent	no	absent	1	2000
62b9cf42a63194f71fc0a393	330519	2	main	z	15	square	global	LVF	yes	present	1	520
62b9cf42a63194f71fc0a393	333668	2	main	z	16	square	local	RVF	yes	present	1	453
62b9cf42a63194f71fc0a393	336508	2	main	z	17	circle	local	RVF	yes	present	1	446
62b9cf42a63194f71fc0a393	340541	2	main	z	18	absent	absent	absent	no	absent	1	2000
62b9cf42a63194f71fc0a393	342435	2	main	z	19	circle	global	RVF	yes	present	1	599
62b9cf42a63194f71fc0a393	345205	2	main	z	20	circle	global	LVF	yes	present	1	690
62b9cf42a63194f71fc0a393	347862	2	main	z	21	circle	global	LVF	yes	present	1	625
62b9cf42a63194f71fc0a393	350489	2	main	z	22	square	global	LVF	yes	present	1	480
62b9cf42a63194f71fc0a393	352887	2	main	z	23	absent	absent	absent	no	present	0	697
62b9cf42a63194f71fc0a393	355571	2	main	z	24	circle	global	LVF	yes	present	1	608
62b9cf42a63194f71fc0a393	359158	2	main	z	25	absent	absent	absent	no	absent	1	2000
62b9cf42a63194f71fc0a393	360850	2	main	z	26	circle	global	RVF	yes	present	1	461
62b9cf42a63194f71fc0a393	364328	2	main	z	27	absent	absent	absent	no	absent	1	2000
62b9cf42a63194f71fc0a393	365935	2	main	z	28	square	local	RVF	yes	present	1	527
62b9cf42a63194f71fc0a393	369499	2	main	z	29	absent	absent	absent	no	absent	1	2000
62b9cf42a63194f71fc0a393	371195	2	main	z	30	circle	global	RVF	yes	present	1	602
62b9cf42a63194f71fc0a393	373579	2	main	z	31	circle	local	LVF	yes	present	1	505
62b9cf42a63194f71fc0a393	377132	2	main	z	32	circle	global	LVF	yes	present	1	446
62b9cf42a63194f71fc0a393	379422	2	main	z	33	square	local	RVF	yes	present	1	581
62b9cf42a63194f71fc0a393	381498	2	main	z	34	square	global	RVF	yes	present	1	605
62b9cf42a63194f71fc0a393	383349	2	main	z	35	square	global	LVF	yes	present	1	590
62b9cf42a63194f71fc0a393	385088	2	main	z	36	square	global	RVF	yes	present	1	544
62b9cf42a63194f71fc0a393	387332	2	main	z	37	square	local	LVF	yes	present	1	1066
62b9cf42a63194f71fc0a393	389119	2	main	z	38	circle	local	RVF	yes	present	1	548
62b9cf42a63194f71fc0a393	391022	2	main	z	39	circle	local	RVF	yes	present	1	500
62b9cf42a63194f71fc0a393	393784	2	main	z	40	square	local	LVF	yes	present	1	1413
62b9cf42a63194f71fc0a393	397196	2	main	z	41	absent	absent	absent	no	absent	1	2000
62b9cf42a63194f71fc0a393	400471	2	main	z	42	absent	absent	absent	no	absent	1	2000
62b9cf42a63194f71fc0a393	401978	2	main	z	43	square	local	LVF	yes	present	1	489
62b9cf42a63194f71fc0a393	404371	2	main	z	44	square	global	LVF	yes	present	1	656
62b9cf42a63194f71fc0a393	406621	2	main	z	45	square	global	LVF	yes	present	1	874
62b9cf42a63194f71fc0a393	409043	2	main	z	46	square	local	RVF	yes	present	1	736
62b9cf42a63194f71fc0a393	411406	2	main	z	47	circle	global	LVF	yes	present	1	749
62b9cf42a63194f71fc0a393	413466	2	main	z	48	circle	local	RVF	yes	present	1	593
62b9cf42a63194f71fc0a393	415450	2	main	z	49	square	global	LVF	yes	present	1	594
62b9cf42a63194f71fc0a393	418709	2	main	z	50	absent	absent	absent	no	absent	1	2000
62b9cf42a63194f71fc0a393	420373	2	main	z	51	circle	global	RVF	yes	present	1	510
62b9cf42a63194f71fc0a393	422745	2	main	z	52	circle	local	LVF	yes	present	1	691
62b9cf42a63194f71fc0a393	424838	2	main	z	53	circle	local	LVF	yes	present	1	568
62b9cf42a63194f71fc0a393	426850	2	main	z	54	square	global	RVF	yes	present	1	731
62b9cf42a63194f71fc0a393	428913	2	main	z	55	square	global	RVF	yes	present	1	606
62b9cf42a63194f71fc0a393	432155	2	main	z	56	absent	absent	absent	no	absent	1	2000
62b9cf42a63194f71fc0a393	433843	2	main	z	57	square	local	LVF	yes	present	1	636
62b9cf42a63194f71fc0a393	437684	2	main	z	58	absent	absent	absent	no	absent	1	2000
62b9cf42a63194f71fc0a393	439855	2	main	z	59	square	local	LVF	yes	present	1	941
62b9cf42a63194f71fc0a393	442174	2	main	z	60	circle	global	RVF	yes	present	1	632
62b9cf42a63194f71fc0a393	444419	2	main	z	61	circle	local	LVF	yes	present	1	459
62b9cf42a63194f71fc0a393	446341	2	main	z	62	square	local	LVF	yes	present	1	468
62b9cf42a63194f71fc0a393	448421	2	main	z	63	circle	global	RVF	yes	present	1	584
62b9cf42a63194f71fc0a393	450276	2	main	z	64	square	local	RVF	yes	present	1	538
62b9cf42a63194f71fc0a393	452113	2	main	z	65	circle	global	LVF	yes	present	1	541
62b9cf42a63194f71fc0a393	455456	2	main	z	66	absent	absent	absent	no	absent	1	2000
62b9cf42a63194f71fc0a393	456993	2	main	z	67	square	local	RVF	yes	present	1	540
62b9cf42a63194f71fc0a393	458756	2	main	z	68	circle	global	LVF	yes	present	1	600
62b9cf42a63194f71fc0a393	460759	2	main	z	69	circle	local	RVF	yes	present	1	786
62b9cf42a63194f71fc0a393	462603	2	main	z	70	circle	local	RVF	yes	present	1	642
62b9cf42a63194f71fc0a393	464576	2	main	z	71	square	local	RVF	yes	present	1	730
62b9cf42a63194f71fc0a393	466524	2	main	z	72	square	global	RVF	yes	present	1	723
62b9cf42a63194f71fc0a393	468489	2	main	z	73	circle	local	RVF	yes	present	1	717
62b9cf42a63194f71fc0a393	470280	2	main	z	74	circle	local	LVF	yes	present	1	524
62b9cf42a63194f71fc0a393	472030	2	main	z	75	circle	global	LVF	yes	present	1	607
62b9cf42a63194f71fc0a393	473881	2	main	z	76	square	global	RVF	yes	present	1	689
62b9cf42a63194f71fc0a393	477077	2	main	z	77	absent	absent	absent	no	absent	1	2000
62b9cf42a63194f71fc0a393	478622	2	main	z	78	square	global	LVF	yes	present	1	526
62b9cf42a63194f71fc0a393	480322	2	main	z	79	circle	global	RVF	yes	present	1	575
62b9cf42a63194f71fc0a393	483396	2	main	z	80	absent	absent	absent	no	absent	1	2000
62b9cf42a63194f71fc0a393	510636	3	practice	slash	1	absent	absent	absent	no	present	0	316
62b9cf42a63194f71fc0a393	515330	3	practice	slash	2	absent	absent	absent	no	absent	1	2000
62b9cf42a63194f71fc0a393	517919	3	practice	slash	3	circle	local	RVF	yes	present	1	428
62b9cf42a63194f71fc0a393	520479	3	practice	slash	4	square	global	RVF	yes	present	1	421
62b9cf42a63194f71fc0a393	522969	3	practice	slash	5	square	global	LVF	yes	present	1	530
62b9cf42a63194f71fc0a393	525414	3	practice	slash	6	circle	global	RVF	yes	present	1	406
62b9cf42a63194f71fc0a393	529510	3	practice	slash	7	absent	absent	absent	no	absent	1	2000
62b9cf42a63194f71fc0a393	532428	3	practice	slash	8	square	local	LVF	yes	present	1	598
62b9cf42a63194f71fc0a393	535098	3	practice	slash	9	circle	local	RVF	yes	present	1	449
62b9cf42a63194f71fc0a393	537549	3	practice	slash	10	circle	global	LVF	yes	present	1	376
62b9cf42a63194f71fc0a393	539988	3	practice	slash	11	circle	global	LVF	yes	present	1	329
62b9cf42a63194f71fc0a393	542926	3	practice	slash	12	square	local	LVF	yes	present	1	649
62b9cf42a63194f71fc0a393	545699	3	practice	slash	13	absent	absent	absent	no	present	0	502
62b9cf42a63194f71fc0a393	548501	3	practice	slash	14	circle	local	RVF	yes	present	1	439
62b9cf42a63194f71fc0a393	551219	3	practice	slash	15	circle	global	RVF	yes	present	1	604
62b9cf42a63194f71fc0a393	554135	3	practice	slash	16	square	global	LVF	yes	present	1	732
62b9cf42a63194f71fc0a393	559677	4	main	slash	1	square	local	RVF	yes	present	1	465
62b9cf42a63194f71fc0a393	561996	4	main	slash	2	circle	local	LVF	yes	present	1	442
62b9cf42a63194f71fc0a393	563969	4	main	slash	3	square	local	LVF	yes	present	1	439
62b9cf42a63194f71fc0a393	565943	4	main	slash	4	square	local	RVF	yes	present	1	396
62b9cf42a63194f71fc0a393	567597	4	main	slash	5	circle	local	LVF	yes	present	1	438
62b9cf42a63194f71fc0a393	569259	4	main	slash	6	circle	local	RVF	yes	present	1	470
62b9cf42a63194f71fc0a393	571011	4	main	slash	7	square	global	RVF	yes	present	1	455
62b9cf42a63194f71fc0a393	572700	4	main	slash	8	circle	global	RVF	yes	present	1	477
62b9cf42a63194f71fc0a393	575714	4	main	slash	9	square	local	RVF	yes	present	1	407
62b9cf42a63194f71fc0a393	577466	4	main	slash	10	square	global	RVF	yes	present	1	542
62b9cf42a63194f71fc0a393	579361	4	main	slash	11	square	local	LVF	yes	present	1	706
62b9cf42a63194f71fc0a393	582724	4	main	slash	12	absent	absent	absent	no	absent	1	2000
62b9cf42a63194f71fc0a393	584205	4	main	slash	13	circle	global	LVF	yes	present	1	497
62b9cf42a63194f71fc0a393	586084	4	main	slash	14	circle	local	LVF	yes	present	1	465
62b9cf42a63194f71fc0a393	587832	4	main	slash	15	circle	global	LVF	yes	present	1	548
62b9cf42a63194f71fc0a393	591189	4	main	slash	16	absent	absent	absent	no	absent	1	2000
62b9cf42a63194f71fc0a393	597661	4	main	slash	17	absent	absent	absent	no	absent	1	2000
62b9cf42a63194f71fc0a393	599210	4	main	slash	18	square	global	LVF	yes	present	1	459
62b9cf42a63194f71fc0a393	601052	4	main	slash	19	circle	local	RVF	yes	present	1	504
62b9cf42a63194f71fc0a393	604437	4	main	slash	20	absent	absent	absent	no	absent	1	2000
62b9cf42a63194f71fc0a393	606276	4	main	slash	21	circle	global	RVF	yes	present	1	615
62b9cf42a63194f71fc0a393	608210	4	main	slash	22	circle	local	RVF	yes	present	1	584
62b9cf42a63194f71fc0a393	609972	4	main	slash	23	square	global	LVF	yes	present	1	494
62b9cf42a63194f71fc0a393	611694	4	main	slash	24	circle	global	RVF	yes	present	1	496
62b9cf42a63194f71fc0a393	614847	4	main	slash	25	absent	absent	absent	no	absent	1	2000
62b9cf42a63194f71fc0a393	616521	4	main	slash	26	square	local	LVF	yes	present	1	533
62b9cf42a63194f71fc0a393	618247	4	main	slash	27	circle	global	RVF	yes	present	1	456
62b9cf42a63194f71fc0a393	620347	4	main	slash	28	square	local	RVF	yes	present	1	468
62b9cf42a63194f71fc0a393	621922	4	main	slash	29	circle	local	RVF	yes	present	1	454
62b9cf42a63194f71fc0a393	625066	4	main	slash	30	absent	absent	absent	no	absent	1	2000
62b9cf42a63194f71fc0a393	626727	4	main	slash	31	square	global	RVF	yes	present	1	571
62b9cf42a63194f71fc0a393	628505	4	main	slash	32	circle	global	LVF	yes	present	1	480
62b9cf42a63194f71fc0a393	632453	4	main	slash	33	absent	absent	absent	no	absent	1	2000
62b9cf42a63194f71fc0a393	634033	4	main	slash	34	circle	local	LVF	yes	present	1	501
62b9cf42a63194f71fc0a393	635643	4	main	slash	35	square	global	LVF	yes	present	1	449
62b9cf42a63194f71fc0a393	637283	4	main	slash	36	square	global	LVF	yes	present	1	540
62b9cf42a63194f71fc0a393	638978	4	main	slash	37	square	local	LVF	yes	present	1	567
62b9cf42a63194f71fc0a393	640628	4	main	slash	38	square	global	RVF	yes	present	1	567
62b9cf42a63194f71fc0a393	642177	4	main	slash	39	circle	global	LVF	yes	present	1	433
62b9cf42a63194f71fc0a393	645343	4	main	slash	40	absent	absent	absent	no	absent	1	2000
62b9cf42a63194f71fc0a393	646994	4	main	slash	41	circle	local	LVF	yes	present	1	565
62b9cf42a63194f71fc0a393	648641	4	main	slash	42	square	global	RVF	yes	present	1	377
62b9cf42a63194f71fc0a393	650395	4	main	slash	43	square	global	LVF	yes	present	1	463
62b9cf42a63194f71fc0a393	652088	4	main	slash	44	circle	local	LVF	yes	present	1	460
62b9cf42a63194f71fc0a393	653691	4	main	slash	45	square	global	LVF	yes	present	1	363
62b9cf42a63194f71fc0a393	656315	4	main	slash	46	square	local	LVF	yes	present	1	442
62b9cf42a63194f71fc0a393	658069	4	main	slash	47	circle	local	LVF	yes	present	1	444
62b9cf42a63194f71fc0a393	661238	4	main	slash	48	absent	absent	absent	no	absent	1	2000
62b9cf42a63194f71fc0a393	664244	4	main	slash	49	absent	absent	absent	no	absent	1	2000
62b9cf42a63194f71fc0a393	667489	4	main	slash	50	absent	absent	absent	no	absent	1	2000
62b9cf42a63194f71fc0a393	669226	4	main	slash	51	square	local	LVF	yes	present	1	529
62b9cf42a63194f71fc0a393	671449	4	main	slash	52	square	global	RVF	yes	present	1	544
62b9cf42a63194f71fc0a393	673181	4	main	slash	53	square	global	LVF	yes	present	1	433
62b9cf42a63194f71fc0a393	674947	4	main	slash	54	square	local	RVF	yes	present	1	586
62b9cf42a63194f71fc0a393	676635	4	main	slash	55	square	local	RVF	yes	present	1	441
62b9cf42a63194f71fc0a393	678237	4	main	slash	56	circle	local	RVF	yes	present	1	407
62b9cf42a63194f71fc0a393	679847	4	main	slash	57	circle	global	LVF	yes	present	1	435
62b9cf42a63194f71fc0a393	681622	4	main	slash	58	circle	global	RVF	yes	present	1	444
62b9cf42a63194f71fc0a393	683284	4	main	slash	59	circle	local	RVF	yes	present	1	507
62b9cf42a63194f71fc0a393	684978	4	main	slash	60	circle	global	LVF	yes	present	1	601
62b9cf42a63194f71fc0a393	686523	4	main	slash	61	circle	global	LVF	yes	present	1	413
62b9cf42a63194f71fc0a393	689646	4	main	slash	62	absent	absent	absent	no	absent	1	2000
62b9cf42a63194f71fc0a393	691250	4	main	slash	63	circle	global	RVF	yes	present	1	486
62b9cf42a63194f71fc0a393	694461	4	main	slash	64	absent	absent	absent	no	absent	1	2000
62b9cf42a63194f71fc0a393	696713	4	main	slash	65	circle	local	LVF	yes	present	1	419
62b9cf42a63194f71fc0a393	699862	4	main	slash	66	absent	absent	absent	no	absent	1	2000
62b9cf42a63194f71fc0a393	702846	4	main	slash	67	absent	absent	absent	no	absent	1	2000
62b9cf42a63194f71fc0a393	704426	4	main	slash	68	square	global	RVF	yes	present	1	525
62b9cf42a63194f71fc0a393	705965	4	main	slash	69	square	global	LVF	yes	present	1	414
62b9cf42a63194f71fc0a393	707585	4	main	slash	70	circle	local	RVF	yes	present	1	501
62b9cf42a63194f71fc0a393	709082	4	main	slash	71	circle	local	RVF	yes	present	1	400
62b9cf42a63194f71fc0a393	710881	4	main	slash	72	square	local	LVF	yes	present	1	399
62b9cf42a63194f71fc0a393	712608	4	main	slash	73	square	global	RVF	yes	present	1	464
62b9cf42a63194f71fc0a393	715739	4	main	slash	74	absent	absent	absent	no	absent	1	2000
62b9cf42a63194f71fc0a393	717266	4	main	slash	75	square	local	RVF	yes	present	1	453
62b9cf42a63194f71fc0a393	718867	4	main	slash	76	circle	global	LVF	yes	present	1	485
62b9cf42a63194f71fc0a393	720513	4	main	slash	77	circle	global	RVF	yes	present	1	445
62b9cf42a63194f71fc0a393	722207	4	main	slash	78	circle	global	RVF	yes	present	1	405
62b9cf42a63194f71fc0a393	724066	4	main	slash	79	square	local	LVF	yes	present	1	713
62b9cf42a63194f71fc0a393	725745	4	main	slash	80	square	local	RVF	yes	present	1	423
630ab689392291ba70d7fd3d	213202	1	practice	slash	1	absent	absent	absent	no	absent	1	2000
630ab689392291ba70d7fd3d	218117	1	practice	slash	2	circle	global	LVF	yes	present	1	914
630ab689392291ba70d7fd3d	221336	1	practice	slash	3	square	global	LVF	yes	present	1	817
630ab689392291ba70d7fd3d	224686	1	practice	slash	4	square	local	LVF	yes	present	1	1035
630ab689392291ba70d7fd3d	229251	1	practice	slash	5	absent	absent	absent	no	absent	1	2000
630ab689392291ba70d7fd3d	232819	1	practice	slash	6	circle	global	LVF	yes	present	1	801
630ab689392291ba70d7fd3d	236480	1	practice	slash	7	square	global	RVF	yes	present	1	1194
630ab689392291ba70d7fd3d	239560	1	practice	slash	8	circle	global	RVF	yes	present	1	792
630ab689392291ba70d7fd3d	243216	1	practice	slash	9	circle	local	RVF	yes	present	1	1432
630ab689392291ba70d7fd3d	246798	1	practice	slash	10	circle	local	RVF	yes	present	1	1230
630ab689392291ba70d7fd3d	249622	1	practice	slash	11	square	global	LVF	yes	present	1	754
630ab689392291ba70d7fd3d	252372	1	practice	slash	12	circle	local	RVF	yes	present	1	722
630ab689392291ba70d7fd3d	257270	1	practice	slash	13	absent	absent	absent	no	absent	1	2000
630ab689392291ba70d7fd3d	260975	1	practice	slash	14	absent	absent	absent	no	present	0	1392
630ab689392291ba70d7fd3d	265368	1	practice	slash	15	square	local	LVF	yes	absent	0	2000
630ab689392291ba70d7fd3d	268797	1	practice	slash	16	circle	global	RVF	yes	present	1	931
630ab689392291ba70d7fd3d	281964	2	main	slash	1	square	local	RVF	yes	present	1	832
630ab689392291ba70d7fd3d	284715	2	main	slash	2	circle	local	RVF	yes	present	1	567
630ab689392291ba70d7fd3d	287496	2	main	slash	3	square	global	LVF	yes	present	1	698
630ab689392291ba70d7fd3d	289781	2	main	slash	4	square	local	RVF	yes	present	1	901
630ab689392291ba70d7fd3d	292244	2	main	slash	5	square	global	LVF	yes	present	1	729
630ab689392291ba70d7fd3d	294263	2	main	slash	6	circle	local	LVF	yes	present	1	666
630ab689392291ba70d7fd3d	303729	2	main	slash	7	absent	absent	absent	no	present	0	1016
630ab689392291ba70d7fd3d	305896	2	main	slash	8	circle	global	RVF	yes	present	1	732
630ab689392291ba70d7fd3d	307950	2	main	slash	9	square	local	LVF	yes	present	1	971
630ab689392291ba70d7fd3d	309722	2	main	slash	10	square	global	RVF	yes	present	1	675
630ab689392291ba70d7fd3d	311522	2	main	slash	11	circle	local	RVF	yes	present	1	725
630ab689392291ba70d7fd3d	313237	2	main	slash	12	square	local	RVF	yes	present	1	658
630ab689392291ba70d7fd3d	316213	2	main	slash	13	absent	absent	absent	no	absent	1	2000
630ab689392291ba70d7fd3d	318444	2	main	slash	14	circle	global	RVF	yes	present	1	714
630ab689392291ba70d7fd3d	320319	2	main	slash	15	circle	local	LVF	yes	present	1	790
630ab689392291ba70d7fd3d	322109	2	main	slash	16	square	global	RVF	yes	present	1	713
630ab689392291ba70d7fd3d	325630	2	main	slash	17	absent	absent	absent	no	absent	1	2000
630ab689392291ba70d7fd3d	327331	2	main	slash	18	circle	local	RVF	yes	present	1	602
630ab689392291ba70d7fd3d	329141	2	main	slash	19	circle	local	RVF	yes	present	1	662
630ab689392291ba70d7fd3d	331532	2	main	slash	20	circle	global	LVF	yes	present	1	886
630ab689392291ba70d7fd3d	334895	2	main	slash	21	circle	global	RVF	yes	absent	0	2000
630ab689392291ba70d7fd3d	337833	2	main	slash	22	circle	local	LVF	yes	present	1	1305
630ab689392291ba70d7fd3d	339805	2	main	slash	23	circle	global	LVF	yes	present	1	760
630ab689392291ba70d7fd3d	343112	2	main	slash	24	square	global	LVF	yes	absent	0	2000
630ab689392291ba70d7fd3d	345300	2	main	slash	25	circle	global	RVF	yes	present	1	1039
630ab689392291ba70d7fd3d	347206	2	main	slash	26	circle	local	LVF	yes	present	1	712
630ab689392291ba70d7fd3d	350513	2	main	slash	27	square	local	LVF	yes	present	1	1668
630ab689392291ba70d7fd3d	352424	2	main	slash	28	square	global	LVF	yes	present	1	763
630ab689392291ba70d7fd3d	354563	2	main	slash	29	square	global	RVF	yes	present	1	852
630ab689392291ba70d7fd3d	356658	2	main	slash	30	square	local	RVF	yes	present	1	1031
630ab689392291ba70d7fd3d	359711	2	main	slash	31	absent	absent	absent	no	absent	1	2000
630ab689392291ba70d7fd3d	361915	2	main	slash	32	circle	global	LVF	yes	present	1	738
630ab689392291ba70d7fd3d	364676	2	main	slash	33	absent	absent	absent	no	present	0	1599
630ab689392291ba70d7fd3d	366833	2	main	slash	34	square	global	RVF	yes	present	1	838
630ab689392291ba70d7fd3d	370221	2	main	slash	35	absent	absent	absent	no	present	0	894
630ab689392291ba70d7fd3d	372154	2	main	slash	36	circle	global	LVF	yes	present	1	677
630ab689392291ba70d7fd3d	375310	2	main	slash	37	absent	absent	absent	no	absent	1	2000
630ab689392291ba70d7fd3d	378543	2	main	slash	38	absent	absent	absent	no	absent	1	2000
630ab689392291ba70d7fd3d	380740	2	main	slash	39	square	local	LVF	yes	present	1	714
630ab689392291ba70d7fd3d	383541	2	main	slash	40	square	local	LVF	yes	present	1	1797
630ab689392291ba70d7fd3d	385388	2	main	slash	41	square	local	LVF	yes	present	1	611
630ab689392291ba70d7fd3d	387181	2	main	slash	42	circle	local	LVF	yes	present	1	738
630ab689392291ba70d7fd3d	389101	2	main	slash	43	square	global	RVF	yes	present	1	975
630ab689392291ba70d7fd3d	390968	2	main	slash	44	circle	local	RVF	yes	present	1	808
630ab689392291ba70d7fd3d	392563	2	main	slash	45	circle	local	LVF	yes	present	1	603
630ab689392291ba70d7fd3d	395739	2	main	slash	46	absent	absent	absent	no	absent	1	2000
630ab689392291ba70d7fd3d	399215	2	main	slash	47	square	local	RVF	yes	present	1	1240
630ab689392291ba70d7fd3d	402096	2	main	slash	48	circle	global	RVF	yes	present	1	1954
630ab689392291ba70d7fd3d	403700	2	main	slash	49	circle	global	RVF	yes	present	1	658
630ab689392291ba70d7fd3d	405982	2	main	slash	50	circle	local	RVF	yes	present	1	772
630ab689392291ba70d7fd3d	407797	2	main	slash	51	circle	global	LVF	yes	present	1	755
630ab689392291ba70d7fd3d	409792	2	main	slash	52	circle	global	LVF	yes	present	1	867
630ab689392291ba70d7fd3d	411447	2	main	slash	53	square	global	RVF	yes	present	1	656
630ab689392291ba70d7fd3d	413352	2	main	slash	54	square	global	LVF	yes	present	1	827
630ab689392291ba70d7fd3d	415098	2	main	slash	55	square	global	LVF	yes	present	1	757
630ab689392291ba70d7fd3d	416888	2	main	slash	56	square	global	LVF	yes	present	1	747
630ab689392291ba70d7fd3d	419824	2	main	slash	57	absent	absent	absent	no	absent	1	2000
630ab689392291ba70d7fd3d	422601	2	main	slash	58	square	local	RVF	yes	present	1	909
630ab689392291ba70d7fd3d	425525	2	main	slash	59	absent	absent	absent	no	absent	1	2000
630ab689392291ba70d7fd3d	427287	2	main	slash	60	circle	local	LVF	yes	present	1	695
630ab689392291ba70d7fd3d	429041	2	main	slash	61	circle	global	RVF	yes	present	1	867
630ab689392291ba70d7fd3d	430899	2	main	slash	62	square	global	LVF	yes	present	1	741
630ab689392291ba70d7fd3d	432482	2	main	slash	63	square	global	RVF	yes	present	1	675
630ab689392291ba70d7fd3d	435441	2	main	slash	64	absent	absent	absent	no	absent	1	2000
630ab689392291ba70d7fd3d	437689	2	main	slash	65	circle	global	LVF	yes	present	1	681
630ab689392291ba70d7fd3d	439414	2	main	slash	66	circle	local	RVF	yes	present	1	707
630ab689392291ba70d7fd3d	441570	2	main	slash	67	square	local	LVF	yes	present	1	1129
630ab689392291ba70d7fd3d	443446	2	main	slash	68	square	local	LVF	yes	present	1	889
630ab689392291ba70d7fd3d	445021	2	main	slash	69	square	local	RVF	yes	present	1	664
630ab689392291ba70d7fd3d	446977	2	main	slash	70	circle	local	LVF	yes	present	1	1003
630ab689392291ba70d7fd3d	449840	2	main	slash	71	absent	absent	absent	no	absent	1	2000
630ab689392291ba70d7fd3d	451647	2	main	slash	72	square	global	RVF	yes	present	1	741
630ab689392291ba70d7fd3d	454523	2	main	slash	73	absent	absent	absent	no	absent	1	2000
630ab689392291ba70d7fd3d	456792	2	main	slash	74	absent	absent	absent	no	present	0	999
630ab689392291ba70d7fd3d	458569	2	main	slash	75	circle	local	RVF	yes	present	1	813
630ab689392291ba70d7fd3d	460666	2	main	slash	76	circle	global	RVF	yes	present	1	1143
630ab689392291ba70d7fd3d	462241	2	main	slash	77	circle	global	LVF	yes	present	1	669
630ab689392291ba70d7fd3d	464081	2	main	slash	78	square	local	LVF	yes	present	1	875
630ab689392291ba70d7fd3d	467006	2	main	slash	79	absent	absent	absent	no	absent	1	2000
630ab689392291ba70d7fd3d	468857	2	main	slash	80	square	local	RVF	yes	present	1	684
630ab689392291ba70d7fd3d	592205	3	practice	z	1	circle	local	RVF	yes	present	1	770
630ab689392291ba70d7fd3d	595282	3	practice	z	2	square	global	RVF	yes	present	1	797
630ab689392291ba70d7fd3d	597797	3	practice	z	3	circle	local	RVF	yes	present	1	496
630ab689392291ba70d7fd3d	600613	3	practice	z	4	circle	local	RVF	yes	present	1	695
630ab689392291ba70d7fd3d	603202	3	practice	z	5	circle	global	LVF	yes	present	1	602
630ab689392291ba70d7fd3d	605799	3	practice	z	6	square	global	LVF	yes	present	1	548
630ab689392291ba70d7fd3d	608299	3	practice	z	7	circle	global	RVF	yes	present	1	506
630ab689392291ba70d7fd3d	612268	3	practice	z	8	absent	absent	absent	no	absent	1	2000
630ab689392291ba70d7fd3d	615858	3	practice	z	9	absent	absent	absent	no	present	0	1474
630ab689392291ba70d7fd3d	618443	3	practice	z	10	square	global	LVF	yes	present	1	677
630ab689392291ba70d7fd3d	621234	3	practice	z	11	absent	absent	absent	no	present	0	851
630ab689392291ba70d7fd3d	624007	3	practice	z	12	circle	global	RVF	yes	present	1	773
630ab689392291ba70d7fd3d	627950	3	practice	z	13	absent	absent	absent	no	absent	1	2000
630ab689392291ba70d7fd3d	630624	3	practice	z	14	square	local	LVF	yes	present	1	723
630ab689392291ba70d7fd3d	633314	3	practice	z	15	circle	global	LVF	yes	present	1	648
630ab689392291ba70d7fd3d	636116	3	practice	z	16	square	local	LVF	yes	present	1	749
630ab689392291ba70d7fd3d	690446	4	main	z	1	circle	local	RVF	yes	present	1	616
630ab689392291ba70d7fd3d	692270	4	main	z	2	square	global	RVF	yes	present	1	492
630ab689392291ba70d7fd3d	694035	4	main	z	3	square	global	LVF	yes	present	1	558
630ab689392291ba70d7fd3d	695733	4	main	z	4	circle	global	LVF	yes	present	1	554
630ab689392291ba70d7fd3d	698878	4	main	z	5	absent	absent	absent	no	absent	1	2000
630ab689392291ba70d7fd3d	702014	4	main	z	6	absent	absent	absent	no	absent	1	2000
630ab689392291ba70d7fd3d	703900	4	main	z	7	square	local	LVF	yes	present	1	806
630ab689392291ba70d7fd3d	705754	4	main	z	8	square	global	RVF	yes	present	1	756
630ab689392291ba70d7fd3d	707382	4	main	z	9	square	global	LVF	yes	present	1	520
630ab689392291ba70d7fd3d	709077	4	main	z	10	square	local	RVF	yes	present	1	512
630ab689392291ba70d7fd3d	711045	4	main	z	11	square	global	RVF	yes	present	1	550
630ab689392291ba70d7fd3d	712724	4	main	z	12	square	local	LVF	yes	present	1	563
630ab689392291ba70d7fd3d	714815	4	main	z	13	square	local	RVF	yes	present	1	887
630ab689392291ba70d7fd3d	717861	4	main	z	14	absent	absent	absent	no	absent	1	2000
630ab689392291ba70d7fd3d	720063	4	main	z	15	square	global	LVF	yes	present	1	536
630ab689392291ba70d7fd3d	721629	4	main	z	16	circle	global	LVF	yes	present	1	484
630ab689392291ba70d7fd3d	723209	4	main	z	17	circle	local	RVF	yes	present	1	564
630ab689392291ba70d7fd3d	724629	4	main	z	18	circle	global	RVF	yes	present	1	419
630ab689392291ba70d7fd3d	726285	4	main	z	19	square	local	RVF	yes	present	1	591
630ab689392291ba70d7fd3d	727609	4	main	z	20	circle	local	RVF	yes	present	1	370
630ab689392291ba70d7fd3d	729236	4	main	z	21	circle	global	LVF	yes	present	1	476
630ab689392291ba70d7fd3d	730786	4	main	z	22	circle	local	LVF	yes	present	1	576
630ab689392291ba70d7fd3d	733677	4	main	z	23	absent	absent	absent	no	absent	1	2000
630ab689392291ba70d7fd3d	735473	4	main	z	24	square	local	LVF	yes	present	1	613
630ab689392291ba70d7fd3d	737023	4	main	z	25	circle	global	RVF	yes	present	1	580
630ab689392291ba70d7fd3d	740060	4	main	z	26	absent	absent	absent	no	absent	1	2000
630ab689392291ba70d7fd3d	741750	4	main	z	27	square	local	LVF	yes	present	1	641
630ab689392291ba70d7fd3d	744759	4	main	z	28	absent	absent	absent	no	absent	1	2000
630ab689392291ba70d7fd3d	746892	4	main	z	29	circle	local	LVF	yes	present	1	503
630ab689392291ba70d7fd3d	748597	4	main	z	30	square	global	RVF	yes	present	1	738
630ab689392291ba70d7fd3d	750415	4	main	z	31	square	global	LVF	yes	present	1	872
630ab689392291ba70d7fd3d	752889	4	main	z	32	circle	global	RVF	yes	present	1	1447
630ab689392291ba70d7fd3d	754426	4	main	z	33	circle	local	LVF	yes	present	1	484
630ab689392291ba70d7fd3d	756019	4	main	z	34	circle	global	RVF	yes	present	1	594
630ab689392291ba70d7fd3d	757417	4	main	z	35	circle	local	RVF	yes	present	1	557
630ab689392291ba70d7fd3d	759292	4	main	z	36	square	local	RVF	yes	present	1	749
630ab689392291ba70d7fd3d	762376	4	main	z	37	absent	absent	absent	no	absent	1	2000
630ab689392291ba70d7fd3d	764975	4	main	z	38	circle	global	LVF	yes	present	1	450
630ab689392291ba70d7fd3d	768025	4	main	z	39	absent	absent	absent	no	absent	1	2000
630ab689392291ba70d7fd3d	769814	4	main	z	40	circle	local	LVF	yes	present	1	689
630ab689392291ba70d7fd3d	771379	4	main	z	41	square	global	RVF	yes	present	1	553
630ab689392291ba70d7fd3d	774474	4	main	z	42	absent	absent	absent	no	absent	1	2000
630ab689392291ba70d7fd3d	776620	4	main	z	43	square	global	LVF	yes	present	1	579
630ab689392291ba70d7fd3d	778341	4	main	z	44	square	local	RVF	yes	present	1	599
630ab689392291ba70d7fd3d	780293	4	main	z	45	circle	global	LVF	yes	present	1	735
630ab689392291ba70d7fd3d	781807	4	main	z	46	circle	local	RVF	yes	present	1	506
630ab689392291ba70d7fd3d	783413	4	main	z	47	circle	local	RVF	yes	present	1	522
630ab689392291ba70d7fd3d	785249	4	main	z	48	circle	local	LVF	yes	present	1	725
630ab689392291ba70d7fd3d	786935	4	main	z	49	circle	global	LVF	yes	present	1	693
630ab689392291ba70d7fd3d	788880	4	main	z	50	circle	global	RVF	yes	present	1	789
630ab689392291ba70d7fd3d	790616	4	main	z	51	circle	local	LVF	yes	present	1	708
630ab689392291ba70d7fd3d	792237	4	main	z	52	square	global	LVF	yes	present	1	562
630ab689392291ba70d7fd3d	794174	4	main	z	53	circle	local	LVF	yes	present	1	833
630ab689392291ba70d7fd3d	795829	4	main	z	54	square	local	RVF	yes	present	1	655
630ab689392291ba70d7fd3d	797780	4	main	z	55	square	global	RVF	yes	present	1	689
630ab689392291ba70d7fd3d	800824	4	main	z	56	absent	absent	absent	no	absent	1	2000
630ab689392291ba70d7fd3d	803023	4	main	z	57	circle	global	RVF	yes	present	1	509
630ab689392291ba70d7fd3d	804987	4	main	z	58	square	local	LVF	yes	present	1	847
630ab689392291ba70d7fd3d	806544	4	main	z	59	square	global	LVF	yes	present	1	536
630ab689392291ba70d7fd3d	808230	4	main	z	60	square	local	LVF	yes	present	1	674
630ab689392291ba70d7fd3d	809819	4	main	z	61	square	global	RVF	yes	present	1	546
630ab689392291ba70d7fd3d	811325	4	main	z	62	circle	global	RVF	yes	present	1	435
630ab689392291ba70d7fd3d	813881	4	main	z	63	absent	absent	absent	no	present	0	1625
630ab689392291ba70d7fd3d	816941	4	main	z	64	absent	absent	absent	no	absent	1	2000
630ab689392291ba70d7fd3d	818809	4	main	z	65	square	local	LVF	yes	present	1	786
630ab689392291ba70d7fd3d	820313	4	main	z	66	circle	global	LVF	yes	present	1	457
630ab689392291ba70d7fd3d	822649	4	main	z	67	circle	global	RVF	yes	present	1	1393
630ab689392291ba70d7fd3d	824176	4	main	z	68	circle	local	RVF	yes	present	1	604
630ab689392291ba70d7fd3d	825897	4	main	z	69	square	local	RVF	yes	present	1	724
630ab689392291ba70d7fd3d	827354	4	main	z	70	circle	local	RVF	yes	present	1	503
630ab689392291ba70d7fd3d	829301	4	main	z	71	square	local	RVF	yes	present	1	629
630ab689392291ba70d7fd3d	832305	4	main	z	72	absent	absent	absent	no	absent	1	2000
630ab689392291ba70d7fd3d	834663	4	main	z	73	square	global	RVF	yes	present	1	691
630ab689392291ba70d7fd3d	837605	4	main	z	74	absent	absent	absent	no	absent	1	2000
630ab689392291ba70d7fd3d	839575	4	main	z	75	square	local	LVF	yes	present	1	553
630ab689392291ba70d7fd3d	841457	4	main	z	76	square	global	LVF	yes	present	1	568
630ab689392291ba70d7fd3d	844488	4	main	z	77	absent	absent	absent	no	absent	1	2000
630ab689392291ba70d7fd3d	846993	4	main	z	78	absent	absent	absent	no	present	0	1388
630ab689392291ba70d7fd3d	848450	4	main	z	79	circle	global	LVF	yes	present	1	479
630ab689392291ba70d7fd3d	850009	4	main	z	80	circle	local	LVF	yes	present	1	538
631b593a9bb21bb86ea260a7	117486	1	practice	slash	1	square	global	RVF	yes	absent	0	2003
631b593a9bb21bb86ea260a7	122021	1	practice	slash	2	absent	absent	absent	no	absent	1	2003
631b593a9bb21bb86ea260a7	127760	1	practice	slash	3	circle	global	LVF	yes	present	1	632
631b593a9bb21bb86ea260a7	132160	1	practice	slash	4	square	local	LVF	yes	absent	0	2003
631b593a9bb21bb86ea260a7	135133	1	practice	slash	5	square	global	LVF	yes	present	1	726
631b593a9bb21bb86ea260a7	139304	1	practice	slash	6	circle	global	RVF	yes	present	1	1411
631b593a9bb21bb86ea260a7	143320	1	practice	slash	7	circle	local	RVF	yes	absent	0	2003
631b593a9bb21bb86ea260a7	146766	1	practice	slash	8	square	local	LVF	yes	present	1	1450
631b593a9bb21bb86ea260a7	150841	1	practice	slash	9	absent	absent	absent	no	absent	1	2003
631b593a9bb21bb86ea260a7	153851	1	practice	slash	10	circle	local	RVF	yes	present	1	902
631b593a9bb21bb86ea260a7	156670	1	practice	slash	11	circle	global	LVF	yes	present	1	693
631b593a9bb21bb86ea260a7	160564	1	practice	slash	12	absent	absent	absent	no	absent	1	2003
631b593a9bb21bb86ea260a7	163124	1	practice	slash	13	circle	global	RVF	yes	present	1	710
631b593a9bb21bb86ea260a7	165797	1	practice	slash	14	circle	local	RVF	yes	present	1	904
631b593a9bb21bb86ea260a7	169536	1	practice	slash	15	absent	absent	absent	no	absent	1	2003
631b593a9bb21bb86ea260a7	172014	1	practice	slash	16	square	global	LVF	yes	present	1	605
631b593a9bb21bb86ea260a7	176515	2	main	slash	1	circle	local	LVF	yes	present	1	810
631b593a9bb21bb86ea260a7	178714	2	main	slash	2	circle	global	LVF	yes	present	1	628
631b593a9bb21bb86ea260a7	181084	2	main	slash	3	square	local	RVF	yes	present	1	1516
631b593a9bb21bb86ea260a7	182747	2	main	slash	4	circle	local	RVF	yes	present	1	666
631b593a9bb21bb86ea260a7	185653	2	main	slash	5	absent	absent	absent	no	absent	1	2003
631b593a9bb21bb86ea260a7	187316	2	main	slash	6	circle	local	RVF	yes	present	1	701
631b593a9bb21bb86ea260a7	188842	2	main	slash	7	circle	local	LVF	yes	present	1	664
631b593a9bb21bb86ea260a7	190597	2	main	slash	8	circle	global	RVF	yes	present	1	946
631b593a9bb21bb86ea260a7	193487	2	main	slash	9	absent	absent	absent	no	absent	1	2003
631b593a9bb21bb86ea260a7	195160	2	main	slash	10	square	global	RVF	yes	present	1	662
631b593a9bb21bb86ea260a7	197945	2	main	slash	11	square	local	RVF	yes	absent	0	2003
631b593a9bb21bb86ea260a7	199632	2	main	slash	12	square	global	RVF	yes	present	1	809
631b593a9bb21bb86ea260a7	202515	2	main	slash	13	absent	absent	absent	no	absent	1	2003
631b593a9bb21bb86ea260a7	205543	2	main	slash	14	square	local	LVF	yes	absent	0	2003
631b593a9bb21bb86ea260a7	207104	2	main	slash	15	square	global	LVF	yes	present	1	656
631b593a9bb21bb86ea260a7	208904	2	main	slash	16	square	local	RVF	yes	present	1	1031
631b593a9bb21bb86ea260a7	211723	2	main	slash	17	absent	absent	absent	no	absent	1	2003
631b593a9bb21bb86ea260a7	213796	2	main	slash	18	circle	global	RVF	yes	present	1	624
631b593a9bb21bb86ea260a7	215346	2	main	slash	19	square	global	LVF	yes	present	1	695
631b593a9bb21bb86ea260a7	216772	2	main	slash	20	circle	global	LVF	yes	present	1	642
631b593a9bb21bb86ea260a7	218213	2	main	slash	21	square	global	LVF	yes	present	1	679
631b593a9bb21bb86ea260a7	220177	2	main	slash	22	square	local	LVF	yes	present	1	1192
631b593a9bb21bb86ea260a7	223064	2	main	slash	23	square	global	RVF	yes	absent	0	2003
631b593a9bb21bb86ea260a7	224574	2	main	slash	24	circle	global	RVF	yes	present	1	609
631b593a9bb21bb86ea260a7	226302	2	main	slash	25	square	local	RVF	yes	present	1	942
631b593a9bb21bb86ea260a7	229099	2	main	slash	26	absent	absent	absent	no	absent	1	2003
631b593a9bb21bb86ea260a7	230748	2	main	slash	27	circle	local	RVF	yes	present	1	756
631b593a9bb21bb86ea260a7	232234	2	main	slash	28	circle	global	RVF	yes	present	1	714
631b593a9bb21bb86ea260a7	233790	2	main	slash	29	square	global	LVF	yes	present	1	736
631b593a9bb21bb86ea260a7	235397	2	main	slash	30	circle	global	LVF	yes	present	1	773
631b593a9bb21bb86ea260a7	236941	2	main	slash	31	circle	local	RVF	yes	present	1	810
631b593a9bb21bb86ea260a7	238549	2	main	slash	32	circle	local	LVF	yes	present	1	862
631b593a9bb21bb86ea260a7	240009	2	main	slash	33	circle	local	LVF	yes	present	1	774
631b593a9bb21bb86ea260a7	241534	2	main	slash	34	circle	global	LVF	yes	present	1	778
631b593a9bb21bb86ea260a7	244287	2	main	slash	35	absent	absent	absent	no	absent	1	2003
631b593a9bb21bb86ea260a7	246078	2	main	slash	36	square	local	LVF	yes	present	1	655
631b593a9bb21bb86ea260a7	247536	2	main	slash	37	square	global	RVF	yes	present	1	717
631b593a9bb21bb86ea260a7	250287	2	main	slash	38	absent	absent	absent	no	absent	1	2003
631b593a9bb21bb86ea260a7	252259	2	main	slash	39	square	local	LVF	yes	present	1	662
