subject	time_elapsed_ms	blocknum	block_type	block_response	trialnum	target	level	field	target_present	response	correct	rt	first_block	acc_slash	acc_z	acc_absent	acc_present	acc_global_LVF	acc_global_RVF	acc_local_LVF	acc_local_RVF	rt_global_LVF	rt_global_RVF	rt_local_LVF	rt_local_RVF	rt_overall	duration_s	exclude_many_gos	exclude_low_acc	exclude_low_rt	exclude_high_rt	exclude	ehi_i1_writing	ehi_i2_throwing	ehi_i3_toothbrush	ehi_i4_spoon	ehi_total	age	country	sex	education	race	hispanic_ethnicity	task_experience_response	task_experience_other_response	open_ended_feedback_response
59a07638bfd73c00010ea394	96657	1	practice	z	1	absent	absent	absent	no	absent	1	2000	z	97.5	95	96.875	96.09375	96.875	90.625	96.875	100	838	815	837	837	837	531.234	0	0	0	0	0	25	12.5	25	12.5	75	23	US	Male	12	Black or African American	No	No	NA	NA
59a07638bfd73c00010ea394	101288	1	practice	z	2	absent	absent	absent	no	absent	1	2000	z	97.5	95	96.875	96.09375	96.875	90.625	96.875	100	838	815	837	837	837	531.234	0	0	0	0	0	25	12.5	25	12.5	75	23	US	Male	12	Black or African American	No	No	NA	NA
59a07638bfd73c00010ea394	104746	1	practice	z	3	circle	global	LVF	yes	present	1	1122	z	97.5	95	96.875	96.09375	96.875	90.625	96.875	100	838	815	837	837	837	531.234	0	0	0	0	0	25	12.5	25	12.5	75	23	US	Male	12	Black or African American	No	No	NA	NA
59a07638bfd73c00010ea394	108554	1	practice	z	4	square	local	LVF	yes	present	1	1263	z	97.5	95	96.875	96.09375	96.875	90.625	96.875	100	838	815	837	837	837	531.234	0	0	0	0	0	25	12.5	25	12.5	75	23	US	Male	12	Black or African American	No	No	NA	NA
59a07638bfd73c00010ea394	111801	1	practice	z	5	circle	global	RVF	yes	present	1	1174	z	97.5	95	96.875	96.09375	96.875	90.625	96.875	100	838	815	837	837	837	531.234	0	0	0	0	0	25	12.5	25	12.5	75	23	US	Male	12	Black or African American	No	No	NA	NA
59a07638bfd73c00010ea394	115012	1	practice	z	6	square	global	LVF	yes	present	1	909	z	97.5	95	96.875	96.09375	96.875	90.625	96.875	100	838	815	837	837	837	531.234	0	0	0	0	0	25	12.5	25	12.5	75	23	US	Male	12	Black or African American	No	No	NA	NA
59a07638bfd73c00010ea394	119028	1	practice	z	7	square	global	LVF	yes	absent	0	2000	z	97.5	95	96.875	96.09375	96.875	90.625	96.875	100	838	815	837	837	837	531.234	0	0	0	0	0	25	12.5	25	12.5	75	23	US	Male	12	Black or African American	No	No	NA	NA
59a07638bfd73c00010ea394	122385	1	practice	z	8	square	local	LVF	yes	present	1	1174	z	97.5	95	96.875	96.09375	96.875	90.625	96.875	100	838	815	837	837	837	531.234	0	0	0	0	0	25	12.5	25	12.5	75	23	US	Male	12	Black or African American	No	No	NA	NA
59a07638bfd73c00010ea394	125595	1	practice	z	9	absent	absent	absent	no	present	0	1214	z	97.5	95	96.875	96.09375	96.875	90.625	96.875	100	838	815	837	837	837	531.234	0	0	0	0	0	25	12.5	25	12.5	75	23	US	Male	12	Black or African American	No	No	NA	NA
59a07638bfd73c00010ea394	128641	1	practice	z	10	circle	local	RVF	yes	present	1	950	z	97.5	95	96.875	96.09375	96.875	90.625	96.875	100	838	815	837	837	837	531.234	0	0	0	0	0	25	12.5	25	12.5	75	23	US	Male	12	Black or African American	No	No	NA	NA
59a07638bfd73c00010ea394	131987	1	practice	z	11	circle	global	LVF	yes	present	1	1216	z	97.5	95	96.875	96.09375	96.875	90.625	96.875	100	838	815	837	837	837	531.234	0	0	0	0	0	25	12.5	25	12.5	75	23	US	Male	12	Black or African American	No	No	NA	NA
59a07638bfd73c00010ea394	135369	1	practice	z	12	circle	local	RVF	yes	present	1	1141	z	97.5	95	96.875	96.09375	96.875	90.625	96.875	100	838	815	837	837	837	531.234	0	0	0	0	0	25	12.5	25	12.5	75	23	US	Male	12	Black or African American	No	No	NA	NA
59a07638bfd73c00010ea394	138409	1	practice	z	13	square	global	RVF	yes	present	1	998	z	97.5	95	96.875	96.09375	96.875	90.625	96.875	100	838	815	837	837	837	531.234	0	0	0	0	0	25	12.5	25	12.5	75	23	US	Male	12	Black or African American	No	No	NA	NA
59a07638bfd73c00010ea394	141449	1	practice	z	14	circle	global	RVF	yes	present	1	1045	z	97.5	95	96.875	96.09375	96.875	90.625	96.875	100	838	815	837	837	837	531.234	0	0	0	0	0	25	12.5	25	12.5	75	23	US	Male	12	Black or African American	No	No	NA	NA
59a07638bfd73c00010ea394	145260	1	practice	z	15	absent	absent	absent	no	absent	1	2000	z	97.5	95	96.875	96.09375	96.875	90.625	96.875	100	838	815	837	837	837	531.234	0	0	0	0	0	25	12.5	25	12.5	75	23	US	Male	12	Black or African American	No	No	NA	NA
59a07638bfd73c00010ea394	148115	1	practice	z	16	circle	local	RVF	yes	present	1	790	z	97.5	95	96.875	96.09375	96.875	90.625	96.875	100	838	815	837	837	837	531.234	0	0	0	0	0	25	12.5	25	12.5	75	23	US	Male	12	Black or African American	No	No	NA	NA
59a07638bfd73c00010ea394	151809	2	main	z	1	square	local	RVF	yes	present	1	904	z	97.5	95	96.875	96.09375	96.875	90.625	96.875	100	838	815	837	837	837	531.234	0	0	0	0	0	25	12.5	25	12.5	75	23	US	Male	12	Black or African American	No	No	NA	NA
59a07638bfd73c00010ea394	154081	2	main	z	2	square	local	RVF	yes	present	1	765	z	97.5	95	96.875	96.09375	96.875	90.625	96.875	100	838	815	837	837	837	531.234	0	0	0	0	0	25	12.5	25	12.5	75	23	US	Male	12	Black or African American	No	No	NA	NA
59a07638bfd73c00010ea394	156313	2	main	z	3	circle	local	LVF	yes	present	1	933	z	97.5	95	96.875	96.09375	96.875	90.625	96.875	100	838	815	837	837	837	531.234	0	0	0	0	0	25	12.5	25	12.5	75	23	US	Male	12	Black or African American	No	No	NA	NA
59a07638bfd73c00010ea394	159516	2	main	z	4	absent	absent	absent	no	absent	1	2000	z	97.5	95	96.875	96.09375	96.875	90.625	96.875	100	838	815	837	837	837	531.234	0	0	0	0	0	25	12.5	25	12.5	75	23	US	Male	12	Black or African American	No	No	NA	NA
59a07638bfd73c00010ea394	162469	2	main	z	5	absent	absent	absent	no	absent	1	2000	z	97.5	95	96.875	96.09375	96.875	90.625	96.875	100	838	815	837	837	837	531.234	0	0	0	0	0	25	12.5	25	12.5	75	23	US	Male	12	Black or African American	No	No	NA	NA
59a07638bfd73c00010ea394	165476	2	main	z	6	square	global	LVF	yes	absent	0	2000	z	97.5	95	96.875	96.09375	96.875	90.625	96.875	100	838	815	837	837	837	531.234	0	0	0	0	0	25	12.5	25	12.5	75	23	US	Male	12	Black or African American	No	No	NA	NA
59a07638bfd73c00010ea394	167329	2	main	z	7	square	local	RVF	yes	present	1	829	z	97.5	95	96.875	96.09375	96.875	90.625	96.875	100	838	815	837	837	837	531.234	0	0	0	0	0	25	12.5	25	12.5	75	23	US	Male	12	Black or African American	No	No	NA	NA
59a07638bfd73c00010ea394	169561	2	main	z	8	square	local	LVF	yes	present	1	821	z	97.5	95	96.875	96.09375	96.875	90.625	96.875	100	838	815	837	837	837	531.234	0	0	0	0	0	25	12.5	25	12.5	75	23	US	Male	12	Black or African American	No	No	NA	NA
59a07638bfd73c00010ea394	172379	2	main	z	9	square	local	RVF	yes	present	1	1596	z	97.5	95	96.875	96.09375	96.875	90.625	96.875	100	838	815	837	837	837	531.234	0	0	0	0	0	25	12.5	25	12.5	75	23	US	Male	12	Black or African American	No	No	NA	NA
59a07638bfd73c00010ea394	174603	2	main	z	10	circle	global	RVF	yes	present	1	1039	z	97.5	95	96.875	96.09375	96.875	90.625	96.875	100	838	815	837	837	837	531.234	0	0	0	0	0	25	12.5	25	12.5	75	23	US	Male	12	Black or African American	No	No	NA	NA
59a07638bfd73c00010ea394	176737	2	main	z	11	circle	global	RVF	yes	present	1	948	z	97.5	95	96.875	96.09375	96.875	90.625	96.875	100	838	815	837	837	837	531.234	0	0	0	0	0	25	12.5	25	12.5	75	23	US	Male	12	Black or African American	No	No	NA	NA
59a07638bfd73c00010ea394	179041	2	main	z	12	circle	local	RVF	yes	present	1	1117	z	97.5	95	96.875	96.09375	96.875	90.625	96.875	100	838	815	837	837	837	531.234	0	0	0	0	0	25	12.5	25	12.5	75	23	US	Male	12	Black or African American	No	No	NA	NA
59a07638bfd73c00010ea394	181105	2	main	z	13	square	global	RVF	yes	present	1	877	z	97.5	95	96.875	96.09375	96.875	90.625	96.875	100	838	815	837	837	837	531.234	0	0	0	0	0	25	12.5	25	12.5	75	23	US	Male	12	Black or African American	No	No	NA	NA
59a07638bfd73c00010ea394	183265	2	main	z	14	circle	local	RVF	yes	present	1	894	z	97.5	95	96.875	96.09375	96.875	90.625	96.875	100	838	815	837	837	837	531.234	0	0	0	0	0	25	12.5	25	12.5	75	23	US	Male	12	Black or African American	No	No	NA	NA
59a07638bfd73c00010ea394	186412	2	main	z	15	absent	absent	absent	no	absent	1	2000	z	97.5	95	96.875	96.09375	96.875	90.625	96.875	100	838	815	837	837	837	531.234	0	0	0	0	0	25	12.5	25	12.5	75	23	US	Male	12	Black or African American	No	No	NA	NA
59a07638bfd73c00010ea394	188457	2	main	z	16	square	global	RVF	yes	present	1	941	z	97.5	95	96.875	96.09375	96.875	90.625	96.875	100	838	815	837	837	837	531.234	0	0	0	0	0	25	12.5	25	12.5	75	23	US	Male	12	Black or African American	No	No	NA	NA
59a07638bfd73c00010ea394	190898	2	main	z	17	square	global	LVF	yes	present	1	797	z	97.5	95	96.875	96.09375	96.875	90.625	96.875	100	838	815	837	837	837	531.234	0	0	0	0	0	25	12.5	25	12.5	75	23	US	Male	12	Black or African American	No	No	NA	NA
59a07638bfd73c00010ea394	192769	2	main	z	18	circle	global	LVF	yes	present	1	763	z	97.5	95	96.875	96.09375	96.875	90.625	96.875	100	838	815	837	837	837	531.234	0	0	0	0	0	25	12.5	25	12.5	75	23	US	Male	12	Black or African American	No	No	NA	NA
59a07638bfd73c00010ea394	194425	2	main	z	19	circle	global	RVF	yes	present	1	723	z	97.5	95	96.875	96.09375	96.875	90.625	96.875	100	838	815	837	837	837	531.234	0	0	0	0	0	25	12.5	25	12.5	75	23	US	Male	12	Black or African American	No	No	NA	NA
59a07638bfd73c00010ea394	196089	2	main	z	20	square	local	LVF	yes	present	1	837	z	97.5	95	96.875	96.09375	96.875	90.625	96.875	100	838	815	837	837	837	531.234	0	0	0	0	0	25	12.5	25	12.5	75	23	US	Male	12	Black or African American	No	No	NA	NA
59a07638bfd73c00010ea394	197595	2	main	z	21	circle	local	LVF	yes	present	1	702	z	97.5	95	96.875	96.09375	96.875	90.625	96.875	100	838	815	837	837	837	531.234	0	0	0	0	0	25	12.5	25	12.5	75	23	US	Male	12	Black or African American	No	No	NA	NA
59a07638bfd73c00010ea394	200364	2	main	z	22	absent	absent	absent	no	absent	1	2000	z	97.5	95	96.875	96.09375	96.875	90.625	96.875	100	838	815	837	837	837	531.234	0	0	0	0	0	25	12.5	25	12.5	75	23	US	Male	12	Black or African American	No	No	NA	NA
59a07638bfd73c00010ea394	202353	2	main	z	23	circle	global	RVF	yes	present	1	796	z	97.5	95	96.875	96.09375	96.875	90.625	96.875	100	838	815	837	837	837	531.234	0	0	0	0	0	25	12.5	25	12.5	75	23	US	Male	12	Black or African American	No	No	NA	NA
59a07638bfd73c00010ea394	203977	2	main	z	24	circle	local	LVF	yes	present	1	821	z	97.5	95	96.875	96.09375	96.875	90.625	96.875	100	838	815	837	837	837	531.234	0	0	0	0	0	25	12.5	25	12.5	75	23	US	Male	12	Black or African American	No	No	NA	NA
59a07638bfd73c00010ea394	206725	2	main	z	25	absent	absent	absent	no	absent	1	2000	z	97.5	95	96.875	96.09375	96.875	90.625	96.875	100	838	815	837	837	837	531.234	0	0	0	0	0	25	12.5	25	12.5	75	23	US	Male	12	Black or African American	No	No	NA	NA
59a07638bfd73c00010ea394	208529	2	main	z	26	square	global	RVF	yes	present	1	797	z	97.5	95	96.875	96.09375	96.875	90.625	96.875	100	838	815	837	837	837	531.234	0	0	0	0	0	25	12.5	25	12.5	75	23	US	Male	12	Black or African American	No	No	NA	NA
59a07638bfd73c00010ea394	211356	2	main	z	27	absent	absent	absent	no	absent	1	2000	z	97.5	95	96.875	96.09375	96.875	90.625	96.875	100	838	815	837	837	837	531.234	0	0	0	0	0	25	12.5	25	12.5	75	23	US	Male	12	Black or African American	No	No	NA	NA
59a07638bfd73c00010ea394	213131	2	main	z	28	circle	global	LVF	yes	present	1	791	z	97.5	95	96.875	96.09375	96.875	90.625	96.875	100	838	815	837	837	837	531.234	0	0	0	0	0	25	12.5	25	12.5	75	23	US	Male	12	Black or African American	No	No	NA	NA
59a07638bfd73c00010ea394	215958	2	main	z	29	absent	absent	absent	no	absent	1	2000	z	97.5	95	96.875	96.09375	96.875	90.625	96.875	100	838	815	837	837	837	531.234	0	0	0	0	0	25	12.5	25	12.5	75	23	US	Male	12	Black or African American	No	No	NA	NA
59a07638bfd73c00010ea394	218059	2	main	z	30	square	global	LVF	yes	present	1	903	z	97.5	95	96.875	96.09375	96.875	90.625	96.875	100	838	815	837	837	837	531.234	0	0	0	0	0	25	12.5	25	12.5	75	23	US	Male	12	Black or African American	No	No	NA	NA
59a07638bfd73c00010ea394	219977	2	main	z	31	circle	local	RVF	yes	present	1	933	z	97.5	95	96.875	96.09375	96.875	90.625	96.875	100	838	815	837	837	837	531.234	0	0	0	0	0	25	12.5	25	12.5	75	23	US	Male	12	Black or African American	No	No	NA	NA
59a07638bfd73c00010ea394	221569	2	main	z	32	circle	global	LVF	yes	present	1	802	z	97.5	95	96.875	96.09375	96.875	90.625	96.875	100	838	815	837	837	837	531.234	0	0	0	0	0	25	12.5	25	12.5	75	23	US	Male	12	Black or African American	No	No	NA	NA
59a07638bfd73c00010ea394	223211	2	main	z	33	circle	local	RVF	yes	present	1	847	z	97.5	95	96.875	96.09375	96.875	90.625	96.875	100	838	815	837	837	837	531.234	0	0	0	0	0	25	12.5	25	12.5	75	23	US	Male	12	Black or African American	No	No	NA	NA
59a07638bfd73c00010ea394	224819	2	main	z	34	square	local	LVF	yes	present	1	815	z	97.5	95	96.875	96.09375	96.875	90.625	96.875	100	838	815	837	837	837	531.234	0	0	0	0	0	25	12.5	25	12.5	75	23	US	Male	12	Black or African American	No	No	NA	NA
59a07638bfd73c00010ea394	226553	2	main	z	35	square	local	LVF	yes	present	1	850	z	97.5	95	96.875	96.09375	96.875	90.625	96.875	100	838	815	837	837	837	531.234	0	0	0	0	0	25	12.5	25	12.5	75	23	US	Male	12	Black or African American	No	No	NA	NA
59a07638bfd73c00010ea394	228193	2	main	z	36	circle	local	LVF	yes	present	1	853	z	97.5	95	96.875	96.09375	96.875	90.625	96.875	100	838	815	837	837	837	531.234	0	0	0	0	0	25	12.5	25	12.5	75	23	US	Male	12	Black or African American	No	No	NA	NA
59a07638bfd73c00010ea394	230099	2	main	z	37	square	global	LVF	yes	present	1	1103	z	97.5	95	96.875	96.09375	96.875	90.625	96.875	100	838	815	837	837	837	531.234	0	0	0	0	0	25	12.5	25	12.5	75	23	US	Male	12	Black or African American	No	No	NA	NA
59a07638bfd73c00010ea394	232932	2	main	z	38	absent	absent	absent	no	absent	1	2000	z	97.5	95	96.875	96.09375	96.875	90.625	96.875	100	838	815	837	837	837	531.234	0	0	0	0	0	25	12.5	25	12.5	75	23	US	Male	12	Black or African American	No	No	NA	NA
59a07638bfd73c00010ea394	234769	2	main	z	39	square	global	RVF	yes	present	1	813	z	97.5	95	96.875	96.09375	96.875	90.625	96.875	100	838	815	837	837	837	531.234	0	0	0	0	0	25	12.5	25	12.5	75	23	US	Male	12	Black or African American	No	No	NA	NA
59a07638bfd73c00010ea394	236361	2	main	z	40	circle	global	LVF	yes	present	1	782	z	97.5	95	96.875	96.09375	96.875	90.625	96.875	100	838	815	837	837	837	531.234	0	0	0	0	0	25	12.5	25	12.5	75	23	US	Male	12	Black or African American	No	No	NA	NA
59a07638bfd73c00010ea394	237873	2	main	z	41	circle	global	RVF	yes	present	1	723	z	97.5	95	96.875	96.09375	96.875	90.625	96.875	100	838	815	837	837	837	531.234	0	0	0	0	0	25	12.5	25	12.5	75	23	US	Male	12	Black or African American	No	No	NA	NA
59a07638bfd73c00010ea394	240668	2	main	z	42	absent	absent	absent	no	absent	1	2000	z	97.5	95	96.875	96.09375	96.875	90.625	96.875	100	838	815	837	837	837	531.234	0	0	0	0	0	25	12.5	25	12.5	75	23	US	Male	12	Black or African American	No	No	NA	NA
59a07638bfd73c00010ea394	242370	2	main	z	43	square	global	RVF	yes	present	1	734	z	97.5	95	96.875	96.09375	96.875	90.625	96.875	100	838	815	837	837	837	531.234	0	0	0	0	0	25	12.5	25	12.5	75	23	US	Male	12	Black or African American	No	No	NA	NA
59a07638bfd73c00010ea394	243921	2	main	z	44	circle	global	RVF	yes	present	1	758	z	97.5	95	96.875	96.09375	96.875	90.625	96.875	100	838	815	837	837	837	531.234	0	0	0	0	0	25	12.5	25	12.5	75	23	US	Male	12	Black or African American	No	No	NA	NA
59a07638bfd73c00010ea394	245361	2	main	z	45	circle	global	RVF	yes	present	1	651	z	97.5	95	96.875	96.09375	96.875	90.625	96.875	100	838	815	837	837	837	531.234	0	0	0	0	0	25	12.5	25	12.5	75	23	US	Male	12	Black or African American	No	No	NA	NA
59a07638bfd73c00010ea394	246849	2	main	z	46	square	local	RVF	yes	present	1	723	z	97.5	95	96.875	96.09375	96.875	90.625	96.875	100	838	815	837	837	837	531.234	0	0	0	0	0	25	12.5	25	12.5	75	23	US	Male	12	Black or African American	No	No	NA	NA
59a07638bfd73c00010ea394	248321	2	main	z	47	circle	global	LVF	yes	present	1	685	z	97.5	95	96.875	96.09375	96.875	90.625	96.875	100	838	815	837	837	837	531.234	0	0	0	0	0	25	12.5	25	12.5	75	23	US	Male	12	Black or African American	No	No	NA	NA
59a07638bfd73c00010ea394	249753	2	main	z	48	circle	local	RVF	yes	present	1	628	z	97.5	95	96.875	96.09375	96.875	90.625	96.875	100	838	815	837	837	837	531.234	0	0	0	0	0	25	12.5	25	12.5	75	23	US	Male	12	Black or African American	No	No	NA	NA
59a07638bfd73c00010ea394	251289	2	main	z	49	circle	local	LVF	yes	present	1	637	z	97.5	95	96.875	96.09375	96.875	90.625	96.875	100	838	815	837	837	837	531.234	0	0	0	0	0	25	12.5	25	12.5	75	23	US	Male	12	Black or African American	No	No	NA	NA
59a07638bfd73c00010ea394	252891	2	main	z	50	circle	global	RVF	yes	present	1	815	z	97.5	95	96.875	96.09375	96.875	90.625	96.875	100	838	815	837	837	837	531.234	0	0	0	0	0	25	12.5	25	12.5	75	23	US	Male	12	Black or African American	No	No	NA	NA
59a07638bfd73c00010ea394	254545	2	main	z	51	square	local	RVF	yes	present	1	869	z	97.5	95	96.875	96.09375	96.875	90.625	96.875	100	838	815	837	837	837	531.234	0	0	0	0	0	25	12.5	25	12.5	75	23	US	Male	12	Black or African American	No	No	NA	NA
59a07638bfd73c00010ea394	256177	2	main	z	52	circle	global	LVF	yes	present	1	829	z	97.5	95	96.875	96.09375	96.875	90.625	96.875	100	838	815	837	837	837	531.234	0	0	0	0	0	25	12.5	25	12.5	75	23	US	Male	12	Black or African American	No	No	NA	NA
59a07638bfd73c00010ea394	257803	2	main	z	53	square	global	LVF	yes	present	1	821	z	97.5	95	96.875	96.09375	96.875	90.625	96.875	100	838	815	837	837	837	531.234	0	0	0	0	0	25	12.5	25	12.5	75	23	US	Male	12	Black or African American	No	No	NA	NA
59a07638bfd73c00010ea394	259500	2	main	z	54	circle	local	LVF	yes	present	1	870	z	97.5	95	96.875	96.09375	96.875	90.625	96.875	100	838	815	837	837	837	531.234	0	0	0	0	0	25	12.5	25	12.5	75	23	US	Male	12	Black or African American	No	No	NA	NA
59a07638bfd73c00010ea394	261202	2	main	z	55	square	local	LVF	yes	present	1	837	z	97.5	95	96.875	96.09375	96.875	90.625	96.875	100	838	815	837	837	837	531.234	0	0	0	0	0	25	12.5	25	12.5	75	23	US	Male	12	Black or African American	No	No	NA	NA
59a07638bfd73c00010ea394	262891	2	main	z	56	square	global	LVF	yes	present	1	855	z	97.5	95	96.875	96.09375	96.875	90.625	96.875	100	838	815	837	837	837	531.234	0	0	0	0	0	25	12.5	25	12.5	75	23	US	Male	12	Black or African American	No	No	NA	NA
59a07638bfd73c00010ea394	264721	2	main	z	57	circle	local	RVF	yes	present	1	930	z	97.5	95	96.875	96.09375	96.875	90.625	96.875	100	838	815	837	837	837	531.234	0	0	0	0	0	25	12.5	25	12.5	75	23	US	Male	12	Black or African American	No	No	NA	NA
59a07638bfd73c00010ea394	266546	2	main	z	58	square	global	RVF	yes	present	1	998	z	97.5	95	96.875	96.09375	96.875	90.625	96.875	100	838	815	837	837	837	531.234	0	0	0	0	0	25	12.5	25	12.5	75	23	US	Male	12	Black or African American	No	No	NA	NA
59a07638bfd73c00010ea394	268377	2	main	z	59	circle	local	RVF	yes	present	1	1004	z	97.5	95	96.875	96.09375	96.875	90.625	96.875	100	838	815	837	837	837	531.234	0	0	0	0	0	25	12.5	25	12.5	75	23	US	Male	12	Black or African American	No	No	NA	NA
59a07638bfd73c00010ea394	270017	2	main	z	60	square	local	RVF	yes	present	1	836	z	97.5	95	96.875	96.09375	96.875	90.625	96.875	100	838	815	837	837	837	531.234	0	0	0	0	0	25	12.5	25	12.5	75	23	US	Male	12	Black or African American	No	No	NA	NA
59a07638bfd73c00010ea394	271721	2	main	z	61	square	global	LVF	yes	present	1	854	z	97.5	95	96.875	96.09375	96.875	90.625	96.875	100	838	815	837	837	837	531.234	0	0	0	0	0	25	12.5	25	12.5	75	23	US	Male	12	Black or African American	No	No	NA	NA
59a07638bfd73c00010ea394	273457	2	main	z	62	square	global	LVF	yes	present	1	893	z	97.5	95	96.875	96.09375	96.875	90.625	96.875	100	838	815	837	837	837	531.234	0	0	0	0	0	25	12.5	25	12.5	75	23	US	Male	12	Black or African American	No	No	NA	NA
59a07638bfd73c00010ea394	275889	2	main	z	63	absent	absent	absent	no	present	0	1533	z	97.5	95	96.875	96.09375	96.875	90.625	96.875	100	838	815	837	837	837	531.234	0	0	0	0	0	25	12.5	25	12.5	75	23	US	Male	12	Black or African American	No	No	NA	NA
59a07638bfd73c00010ea394	278716	2	main	z	64	square	global	RVF	yes	absent	0	2000	z	97.5	95	96.875	96.09375	96.875	90.625	96.875	100	838	815	837	837	837	531.234	0	0	0	0	0	25	12.5	25	12.5	75	23	US	Male	12	Black or African American	No	No	NA	NA
59a07638bfd73c00010ea394	281740	2	main	z	65	absent	absent	absent	no	absent	1	2000	z	97.5	95	96.875	96.09375	96.875	90.625	96.875	100	838	815	837	837	837	531.234	0	0	0	0	0	25	12.5	25	12.5	75	23	US	Male	12	Black or African American	No	No	NA	NA
59a07638bfd73c00010ea394	285006	2	main	z	66	absent	absent	absent	no	absent	1	2000	z	97.5	95	96.875	96.09375	96.875	90.625	96.875	100	838	815	837	837	837	531.234	0	0	0	0	0	25	12.5	25	12.5	75	23	US	Male	12	Black or African American	No	No	NA	NA
59a07638bfd73c00010ea394	286809	2	main	z	67	square	local	LVF	yes	present	1	739	z	97.5	95	96.875	96.09375	96.875	90.625	96.875	100	838	815	837	837	837	531.234	0	0	0	0	0	25	12.5	25	12.5	75	23	US	Male	12	Black or African American	No	No	NA	NA
59a07638bfd73c00010ea394	289620	2	main	z	68	absent	absent	absent	no	absent	1	2000	z	97.5	95	96.875	96.09375	96.875	90.625	96.875	100	838	815	837	837	837	531.234	0	0	0	0	0	25	12.5	25	12.5	75	23	US	Male	12	Black or African American	No	No	NA	NA
59a07638bfd73c00010ea394	292668	2	main	z	69	square	global	RVF	yes	absent	0	2000	z	97.5	95	96.875	96.09375	96.875	90.625	96.875	100	838	815	837	837	837	531.234	0	0	0	0	0	25	12.5	25	12.5	75	23	US	Male	12	Black or African American	No	No	NA	NA
59a07638bfd73c00010ea394	294505	2	main	z	70	square	local	LVF	yes	present	1	835	z	97.5	95	96.875	96.09375	96.875	90.625	96.875	100	838	815	837	837	837	531.234	0	0	0	0	0	25	12.5	25	12.5	75	23	US	Male	12	Black or African American	No	No	NA	NA
59a07638bfd73c00010ea394	296073	2	main	z	71	square	local	RVF	yes	present	1	763	z	97.5	95	96.875	96.09375	96.875	90.625	96.875	100	838	815	837	837	837	531.234	0	0	0	0	0	25	12.5	25	12.5	75	23	US	Male	12	Black or African American	No	No	NA	NA
59a07638bfd73c00010ea394	297745	2	main	z	72	circle	local	LVF	yes	present	1	860	z	97.5	95	96.875	96.09375	96.875	90.625	96.875	100	838	815	837	837	837	531.234	0	0	0	0	0	25	12.5	25	12.5	75	23	US	Male	12	Black or African American	No	No	NA	NA
59a07638bfd73c00010ea394	299449	2	main	z	73	circle	local	RVF	yes	present	1	915	z	97.5	95	96.875	96.09375	96.875	90.625	96.875	100	838	815	837	837	837	531.234	0	0	0	0	0	25	12.5	25	12.5	75	23	US	Male	12	Black or African American	No	No	NA	NA
59a07638bfd73c00010ea394	301113	2	main	z	74	circle	global	LVF	yes	present	1	875	z	97.5	95	96.875	96.09375	96.875	90.625	96.875	100	838	815	837	837	837	531.234	0	0	0	0	0	25	12.5	25	12.5	75	23	US	Male	12	Black or African American	No	No	NA	NA
59a07638bfd73c00010ea394	303940	2	main	z	75	absent	absent	absent	no	absent	1	2000	z	97.5	95	96.875	96.09375	96.875	90.625	96.875	100	838	815	837	837	837	531.234	0	0	0	0	0	25	12.5	25	12.5	75	23	US	Male	12	Black or African American	No	No	NA	NA
59a07638bfd73c00010ea394	305689	2	main	z	76	circle	local	LVF	yes	present	1	725	z	97.5	95	96.875	96.09375	96.875	90.625	96.875	100	838	815	837	837	837	531.234	0	0	0	0	0	25	12.5	25	12.5	75	23	US	Male	12	Black or African American	No	No	NA	NA
59a07638bfd73c00010ea394	307473	2	main	z	77	circle	global	LVF	yes	present	1	996	z	97.5	95	96.875	96.09375	96.875	90.625	96.875	100	838	815	837	837	837	531.234	0	0	0	0	0	25	12.5	25	12.5	75	23	US	Male	12	Black or African American	No	No	NA	NA
59a07638bfd73c00010ea394	308913	2	main	z	78	square	local	LVF	yes	present	1	675	z	97.5	95	96.875	96.09375	96.875	90.625	96.875	100	838	815	837	837	837	531.234	0	0	0	0	0	25	12.5	25	12.5	75	23	US	Male	12	Black or African American	No	No	NA	NA
59a07638bfd73c00010ea394	311740	2	main	z	79	absent	absent	absent	no	absent	1	2000	z	97.5	95	96.875	96.09375	96.875	90.625	96.875	100	838	815	837	837	837	531.234	0	0	0	0	0	25	12.5	25	12.5	75	23	US	Male	12	Black or African American	No	No	NA	NA
59a07638bfd73c00010ea394	314588	2	main	z	80	absent	absent	absent	no	absent	1	2000	z	97.5	95	96.875	96.09375	96.875	90.625	96.875	100	838	815	837	837	837	531.234	0	0	0	0	0	25	12.5	25	12.5	75	23	US	Male	12	Black or African American	No	No	NA	NA
59a07638bfd73c00010ea394	327482	3	practice	slash	1	square	global	RVF	yes	present	1	681	z	97.5	95	96.875	96.09375	96.875	90.625	96.875	100	838	815	837	837	837	531.234	0	0	0	0	0	25	12.5	25	12.5	75	23	US	Male	12	Black or African American	No	No	NA	NA
59a07638bfd73c00010ea394	330329	3	practice	slash	2	circle	local	RVF	yes	present	1	645	z	97.5	95	96.875	96.09375	96.875	90.625	96.875	100	838	815	837	837	837	531.234	0	0	0	0	0	25	12.5	25	12.5	75	23	US	Male	12	Black or African American	No	No	NA	NA
59a07638bfd73c00010ea394	333049	3	practice	slash	3	square	global	LVF	yes	present	1	629	z	97.5	95	96.875	96.09375	96.875	90.625	96.875	100	838	815	837	837	837	531.234	0	0	0	0	0	25	12.5	25	12.5	75	23	US	Male	12	Black or African American	No	No	NA	NA
59a07638bfd73c00010ea394	335636	3	practice	slash	4	square	global	LVF	yes	present	1	719	z	97.5	95	96.875	96.09375	96.875	90.625	96.875	100	838	815	837	837	837	531.234	0	0	0	0	0	25	12.5	25	12.5	75	23	US	Male	12	Black or African American	No	No	NA	NA
59a07638bfd73c00010ea394	338017	3	practice	slash	5	circle	local	RVF	yes	present	1	498	z	97.5	95	96.875	96.09375	96.875	90.625	96.875	100	838	815	837	837	837	531.234	0	0	0	0	0	25	12.5	25	12.5	75	23	US	Male	12	Black or African American	No	No	NA	NA
59a07638bfd73c00010ea394	342013	3	practice	slash	6	absent	absent	absent	no	absent	1	2000	z	97.5	95	96.875	96.09375	96.875	90.625	96.875	100	838	815	837	837	837	531.234	0	0	0	0	0	25	12.5	25	12.5	75	23	US	Male	12	Black or African American	No	No	NA	NA
59a07638bfd73c00010ea394	344585	3	practice	slash	7	circle	global	LVF	yes	present	1	636	z	97.5	95	96.875	96.09375	96.875	90.625	96.875	100	838	815	837	837	837	531.234	0	0	0	0	0	25	12.5	25	12.5	75	23	US	Male	12	Black or African American	No	No	NA	NA
59a07638bfd73c00010ea394	347267	3	practice	slash	8	circle	global	RVF	yes	present	1	765	z	97.5	95	96.875	96.09375	96.875	90.625	96.875	100	838	815	837	837	837	531.234	0	0	0	0	0	25	12.5	25	12.5	75	23	US	Male	12	Black or African American	No	No	NA	NA
59a07638bfd73c00010ea394	351300	3	practice	slash	9	absent	absent	absent	no	absent	1	2000	z	97.5	95	96.875	96.09375	96.875	90.625	96.875	100	838	815	837	837	837	531.234	0	0	0	0	0	25	12.5	25	12.5	75	23	US	Male	12	Black or African American	No	No	NA	NA
59a07638bfd73c00010ea394	353961	3	practice	slash	10	circle	global	RVF	yes	present	1	669	z	97.5	95	96.875	96.09375	96.875	90.625	96.875	100	838	815	837	837	837	531.234	0	0	0	0	0	25	12.5	25	12.5	75	23	US	Male	12	Black or African American	No	No	NA	NA
59a07638bfd73c00010ea394	357804	3	practice	slash	11	absent	absent	absent	no	absent	1	2000	z	97.5	95	96.875	96.09375	96.875	90.625	96.875	100	838	815	837	837	837	531.234	0	0	0	0	0	25	12.5	25	12.5	75	23	US	Male	12	Black or African American	No	No	NA	NA
59a07638bfd73c00010ea394	360569	3	practice	slash	12	square	local	LVF	yes	present	1	779	z	97.5	95	96.875	96.09375	96.875	90.625	96.875	100	838	815	837	837	837	531.234	0	0	0	0	0	25	12.5	25	12.5	75	23	US	Male	12	Black or African American	No	No	NA	NA
59a07638bfd73c00010ea394	363116	3	practice	slash	13	square	local	LVF	yes	present	1	727	z	97.5	95	96.875	96.09375	96.875	90.625	96.875	100	838	815	837	837	837	531.234	0	0	0	0	0	25	12.5	25	12.5	75	23	US	Male	12	Black or African American	No	No	NA	NA
59a07638bfd73c00010ea394	365825	3	practice	slash	14	circle	local	RVF	yes	present	1	725	z	97.5	95	96.875	96.09375	96.875	90.625	96.875	100	838	815	837	837	837	531.234	0	0	0	0	0	25	12.5	25	12.5	75	23	US	Male	12	Black or African American	No	No	NA	NA
59a07638bfd73c00010ea394	369748	3	practice	slash	15	absent	absent	absent	no	absent	1	2000	z	97.5	95	96.875	96.09375	96.875	90.625	96.875	100	838	815	837	837	837	531.234	0	0	0	0	0	25	12.5	25	12.5	75	23	US	Male	12	Black or African American	No	No	NA	NA
59a07638bfd73c00010ea394	372465	3	practice	slash	16	circle	global	LVF	yes	present	1	765	z	97.5	95	96.875	96.09375	96.875	90.625	96.875	100	838	815	837	837	837	531.234	0	0	0	0	0	25	12.5	25	12.5	75	23	US	Male	12	Black or African American	No	No	NA	NA
59a07638bfd73c00010ea394	377207	4	main	slash	1	absent	absent	absent	no	absent	1	2000	z	97.5	95	96.875	96.09375	96.875	90.625	96.875	100	838	815	837	837	837	531.234	0	0	0	0	0	25	12.5	25	12.5	75	23	US	Male	12	Black or African American	No	No	NA	NA
59a07638bfd73c00010ea394	379036	4	main	slash	2	circle	global	RVF	yes	present	1	749	z	97.5	95	96.875	96.09375	96.875	90.625	96.875	100	838	815	837	837	837	531.234	0	0	0	0	0	25	12.5	25	12.5	75	23	US	Male	12	Black or African American	No	No	NA	NA
59a07638bfd73c00010ea394	381242	4	main	slash	3	square	local	LVF	yes	present	1	740	z	97.5	95	96.875	96.09375	96.875	90.625	96.875	100	838	815	837	837	837	531.234	0	0	0	0	0	25	12.5	25	12.5	75	23	US	Male	12	Black or African American	No	No	NA	NA
59a07638bfd73c00010ea394	382857	4	main	slash	4	square	local	RVF	yes	present	1	717	z	97.5	95	96.875	96.09375	96.875	90.625	96.875	100	838	815	837	837	837	531.234	0	0	0	0	0	25	12.5	25	12.5	75	23	US	Male	12	Black or African American	No	No	NA	NA
59a07638bfd73c00010ea394	384569	4	main	slash	5	circle	local	RVF	yes	present	1	789	z	97.5	95	96.875	96.09375	96.875	90.625	96.875	100	838	815	837	837	837	531.234	0	0	0	0	0	25	12.5	25	12.5	75	23	US	Male	12	Black or African American	No	No	NA	NA
59a07638bfd73c00010ea394	386251	4	main	slash	6	circle	global	LVF	yes	present	1	839	z	97.5	95	96.875	96.09375	96.875	90.625	96.875	100	838	815	837	837	837	531.234	0	0	0	0	0	25	12.5	25	12.5	75	23	US	Male	12	Black or African American	No	No	NA	NA
59a07638bfd73c00010ea394	387932	4	main	slash	7	circle	local	RVF	yes	present	1	760	z	97.5	95	96.875	96.09375	96.875	90.625	96.875	100	838	815	837	837	837	531.234	0	0	0	0	0	25	12.5	25	12.5	75	23	US	Male	12	Black or African American	No	No	NA	NA
59a07638bfd73c00010ea394	389674	4	main	slash	8	square	global	LVF	yes	present	1	838	z	97.5	95	96.875	96.09375	96.875	90.625	96.875	100	838	815	837	837	837	531.234	0	0	0	0	0	25	12.5	25	12.5	75	23	US	Male	12	Black or African American	No	No	NA	NA
59a07638bfd73c00010ea394	391473	4	main	slash	9	circle	global	RVF	yes	present	1	899	z	97.5	95	96.875	96.09375	96.875	90.625	96.875	100	838	815	837	837	837	531.234	0	0	0	0	0	25	12.5	25	12.5	75	23	US	Male	12	Black or African American	No	No	NA	NA
59a07638bfd73c00010ea394	393138	4	main	slash	10	circle	global	LVF	yes	present	1	861	z	97.5	95	96.875	96.09375	96.875	90.625	96.875	100	838	815	837	837	837	531.234	0	0	0	0	0	25	12.5	25	12.5	75	23	US	Male	12	Black or African American	No	No	NA	NA
59a07638bfd73c00010ea394	394929	4	main	slash	11	circle	local	RVF	yes	present	1	915	z	97.5	95	96.875	96.09375	96.875	90.625	96.875	100	838	815	837	837	837	531.234	0	0	0	0	0	25	12.5	25	12.5	75	23	US	Male	12	Black or African American	No	No	NA	NA
59a07638bfd73c00010ea394	396665	4	main	slash	12	circle	local	LVF	yes	present	1	954	z	97.5	95	96.875	96.09375	96.875	90.625	96.875	100	838	815	837	837	837	531.234	0	0	0	0	0	25	12.5	25	12.5	75	23	US	Male	12	Black or African American	No	No	NA	NA
59a07638bfd73c00010ea394	399486	4	main	slash	13	absent	absent	absent	no	absent	1	2000	z	97.5	95	96.875	96.09375	96.875	90.625	96.875	100	838	815	837	837	837	531.234	0	0	0	0	0	25	12.5	25	12.5	75	23	US	Male	12	Black or African American	No	No	NA	NA
59a07638bfd73c00010ea394	401289	4	main	slash	14	square	global	LVF	yes	present	1	829	z	97.5	95	96.875	96.09375	96.875	90.625	96.875	100	838	815	837	837	837	531.234	0	0	0	0	0	25	12.5	25	12.5	75	23	US	Male	12	Black or African American	No	No	NA	NA
59a07638bfd73c00010ea394	403049	4	main	slash	15	square	local	LVF	yes	present	1	900	z	97.5	95	96.875	96.09375	96.875	90.625	96.875	100	838	815	837	837	837	531.234	0	0	0	0	0	25	12.5	25	12.5	75	23	US	Male	12	Black or African American	No	No	NA	NA
59a07638bfd73c00010ea394	404809	4	main	slash	16	square	local	RVF	yes	present	1	893	z	97.5	95	96.875	96.09375	96.875	90.625	96.875	100	838	815	837	837	837	531.234	0	0	0	0	0	25	12.5	25	12.5	75	23	US	Male	12	Black or African American	No	No	NA	NA
59a07638bfd73c00010ea394	406601	4	main	slash	17	square	global	RVF	yes	present	1	933	z	97.5	95	96.875	96.09375	96.875	90.625	96.875	100	838	815	837	837	837	531.234	0	0	0	0	0	25	12.5	25	12.5	75	23	US	Male	12	Black or African American	No	No	NA	NA
59a07638bfd73c00010ea394	408321	4	main	slash	18	circle	local	LVF	yes	present	1	917	z	97.5	95	96.875	96.09375	96.875	90.625	96.875	100	838	815	837	837	837	531.234	0	0	0	0	0	25	12.5	25	12.5	75	23	US	Male	12	Black or African American	No	No	NA	NA
59a07638bfd73c00010ea394	410081	4	main	slash	19	circle	local	LVF	yes	present	1	933	z	97.5	95	96.875	96.09375	96.875	90.625	96.875	100	838	815	837	837	837	531.234	0	0	0	0	0	25	12.5	25	12.5	75	23	US	Male	12	Black or African American	No	No	NA	NA
59a07638bfd73c00010ea394	412879	4	main	slash	20	absent	absent	absent	no	absent	1	2000	z	97.5	95	96.875	96.09375	96.875	90.625	96.875	100	838	815	837	837	837	531.234	0	0	0	0	0	25	12.5	25	12.5	75	23	US	Male	12	Black or African American	No	No	NA	NA
59a07638bfd73c00010ea394	415145	4	main	slash	21	square	local	LVF	yes	present	1	861	z	97.5	95	96.875	96.09375	96.875	90.625	96.875	100	838	815	837	837	837	531.234	0	0	0	0	0	25	12.5	25	12.5	75	23	US	Male	12	Black or African American	No	No	NA	NA
59a07638bfd73c00010ea394	418004	4	main	slash	22	absent	absent	absent	no	absent	1	2000	z	97.5	95	96.875	96.09375	96.875	90.625	96.875	100	838	815	837	837	837	531.234	0	0	0	0	0	25	12.5	25	12.5	75	23	US	Male	12	Black or African American	No	No	NA	NA
59a07638bfd73c00010ea394	419905	4	main	slash	23	circle	global	LVF	yes	present	1	909	z	97.5	95	96.875	96.09375	96.875	90.625	96.875	100	838	815	837	837	837	531.234	0	0	0	0	0	25	12.5	25	12.5	75	23	US	Male	12	Black or African American	No	No	NA	NA
59a07638bfd73c00010ea394	421586	4	main	slash	24	circle	local	RVF	yes	present	1	781	z	97.5	95	96.875	96.09375	96.875	90.625	96.875	100	838	815	837	837	837	531.234	0	0	0	0	0	25	12.5	25	12.5	75	23	US	Male	12	Black or African American	No	No	NA	NA
59a07638bfd73c00010ea394	424486	4	main	slash	25	absent	absent	absent	no	absent	1	2000	z	97.5	95	96.875	96.09375	96.875	90.625	96.875	100	838	815	837	837	837	531.234	0	0	0	0	0	25	12.5	25	12.5	75	23	US	Male	12	Black or African American	No	No	NA	NA
59a07638bfd73c00010ea394	426273	4	main	slash	26	circle	global	LVF	yes	present	1	821	z	97.5	95	96.875	96.09375	96.875	90.625	96.875	100	838	815	837	837	837	531.234	0	0	0	0	0	25	12.5	25	12.5	75	23	US	Male	12	Black or African American	No	No	NA	NA
59a07638bfd73c00010ea394	428106	4	main	slash	27	square	global	LVF	yes	present	1	949	z	97.5	95	96.875	96.09375	96.875	90.625	96.875	100	838	815	837	837	837	531.234	0	0	0	0	0	25	12.5	25	12.5	75	23	US	Male	12	Black or African American	No	No	NA	NA
59a07638bfd73c00010ea394	430049	4	main	slash	28	circle	local	LVF	yes	present	1	1117	z	97.5	95	96.875	96.09375	96.875	90.625	96.875	100	838	815	837	837	837	531.234	0	0	0	0	0	25	12.5	25	12.5	75	23	US	Male	12	Black or African American	No	No	NA	NA
59a07638bfd73c00010ea394	432812	4	main	slash	29	absent	absent	absent	no	absent	1	2000	z	97.5	95	96.875	96.09375	96.875	90.625	96.875	100	838	815	837	837	837	531.234	0	0	0	0	0	25	12.5	25	12.5	75	23	US	Male	12	Black or African American	No	No	NA	NA
59a07638bfd73c00010ea394	434595	4	main	slash	30	square	local	RVF	yes	present	1	837	z	97.5	95	96.875	96.09375	96.875	90.625	96.875	100	838	815	837	837	837	531.234	0	0	0	0	0	25	12.5	25	12.5	75	23	US	Male	12	Black or African American	No	No	NA	NA
59a07638bfd73c00010ea394	437420	4	main	slash	31	absent	absent	absent	no	absent	1	2000	z	97.5	95	96.875	96.09375	96.875	90.625	96.875	100	838	815	837	837	837	531.234	0	0	0	0	0	25	12.5	25	12.5	75	23	US	Male	12	Black or African American	No	No	NA	NA
59a07638bfd73c00010ea394	439307	4	main	slash	32	square	global	RVF	yes	present	1	926	z	97.5	95	96.875	96.09375	96.875	90.625	96.875	100	838	815	837	837	837	531.234	0	0	0	0	0	25	12.5	25	12.5	75	23	US	Male	12	Black or African American	No	No	NA	NA
59a07638bfd73c00010ea394	442094	4	main	slash	33	absent	absent	absent	no	absent	1	2000	z	97.5	95	96.875	96.09375	96.875	90.625	96.875	100	838	815	837	837	837	531.234	0	0	0	0	0	25	12.5	25	12.5	75	23	US	Male	12	Black or African American	No	No	NA	NA
59a07638bfd73c00010ea394	443754	4	main	slash	34	square	local	RVF	yes	present	1	837	z	97.5	95	96.875	96.09375	96.875	90.625	96.875	100	838	815	837	837	837	531.234	0	0	0	0	0	25	12.5	25	12.5	75	23	US	Male	12	Black or African American	No	No	NA	NA
59a07638bfd73c00010ea394	445404	4	main	slash	35	square	global	RVF	yes	present	1	856	z	97.5	95	96.875	96.09375	96.875	90.625	96.875	100	838	815	837	837	837	531.234	0	0	0	0	0	25	12.5	25	12.5	75	23	US	Male	12	Black or African American	No	No	NA	NA
59a07638bfd73c00010ea394	446971	4	main	slash	36	square	global	RVF	yes	present	1	758	z	97.5	95	96.875	96.09375	96.875	90.625	96.875	100	838	815	837	837	837	531.234	0	0	0	0	0	25	12.5	25	12.5	75	23	US	Male	12	Black or African American	No	No	NA	NA
59a07638bfd73c00010ea394	448601	4	main	slash	37	square	global	LVF	yes	present	1	804	z	97.5	95	96.875	96.09375	96.875	90.625	96.875	100	838	815	837	837	837	531.234	0	0	0	0	0	25	12.5	25	12.5	75	23	US	Male	12	Black or African American	No	No	NA	NA
59a07638bfd73c00010ea394	450297	4	main	slash	38	square	local	LVF	yes	present	1	869	z	97.5	95	96.875	96.09375	96.875	90.625	96.875	100	838	815	837	837	837	531.234	0	0	0	0	0	25	12.5	25	12.5	75	23	US	Male	12	Black or African American	No	No	NA	NA
59a07638bfd73c00010ea394	453084	4	main	slash	39	circle	global	RVF	yes	absent	0	2000	z	97.5	95	96.875	96.09375	96.875	90.625	96.875	100	838	815	837	837	837	531.234	0	0	0	0	0	25	12.5	25	12.5	75	23	US	Male	12	Black or African American	No	No	NA	NA
59a07638bfd73c00010ea394	455059	4	main	slash	40	circle	global	RVF	yes	present	1	815	z	97.5	95	96.875	96.09375	96.875	90.625	96.875	100	838	815	837	837	837	531.234	0	0	0	0	0	25	12.5	25	12.5	75	23	US	Male	12	Black or African American	No	No	NA	NA
59a07638bfd73c00010ea394	456681	4	main	slash	41	square	global	LVF	yes	present	1	837	z	97.5	95	96.875	96.09375	96.875	90.625	96.875	100	838	815	837	837	837	531.234	0	0	0	0	0	25	12.5	25	12.5	75	23	US	Male	12	Black or African American	No	No	NA	NA
59a07638bfd73c00010ea394	458378	4	main	slash	42	circle	global	RVF	yes	present	1	757	z	97.5	95	96.875	96.09375	96.875	90.625	96.875	100	838	815	837	837	837	531.234	0	0	0	0	0	25	12.5	25	12.5	75	23	US	Male	12	Black or African American	No	No	NA	NA
59a07638bfd73c00010ea394	460113	4	main	slash	43	square	local	RVF	yes	present	1	914	z	97.5	95	96.875	96.09375	96.875	90.625	96.875	100	838	815	837	837	837	531.234	0	0	0	0	0	25	12.5	25	12.5	75	23	US	Male	12	Black or African American	No	No	NA	NA
59a07638bfd73c00010ea394	461738	4	main	slash	44	circle	local	LVF	yes	present	1	853	z	97.5	95	96.875	96.09375	96.875	90.625	96.875	100	838	815	837	837	837	531.234	0	0	0	0	0	25	12.5	25	12.5	75	23	US	Male	12	Black or African American	No	No	NA	NA
59a07638bfd73c00010ea394	463355	4	main	slash	45	circle	local	LVF	yes	present	1	831	z	97.5	95	96.875	96.09375	96.875	90.625	96.875	100	838	815	837	837	837	531.234	0	0	0	0	0	25	12.5	25	12.5	75	23	US	Male	12	Black or African American	No	No	NA	NA
59a07638bfd73c00010ea394	464995	4	main	slash	46	square	global	RVF	yes	present	1	855	z	97.5	95	96.875	96.09375	96.875	90.625	96.875	100	838	815	837	837	837	531.234	0	0	0	0	0	25	12.5	25	12.5	75	23	US	Male	12	Black or African American	No	No	NA	NA
59a07638bfd73c00010ea394	466658	4	main	slash	47	square	global	LVF	yes	present	1	853	z	97.5	95	96.875	96.09375	96.875	90.625	96.875	100	838	815	837	837	837	531.234	0	0	0	0	0	25	12.5	25	12.5	75	23	US	Male	12	Black or African American	No	No	NA	NA
59a07638bfd73c00010ea394	468258	4	main	slash	48	circle	local	RVF	yes	present	1	838	z	97.5	95	96.875	96.09375	96.875	90.625	96.875	100	838	815	837	837	837	531.234	0	0	0	0	0	25	12.5	25	12.5	75	23	US	Male	12	Black or African American	No	No	NA	NA
59a07638bfd73c00010ea394	469988	4	main	slash	49	circle	global	LVF	yes	present	1	967	z	97.5	95	96.875	96.09375	96.875	90.625	96.875	100	838	815	837	837	837	531.234	0	0	0	0	0	25	12.5	25	12.5	75	23	US	Male	12	Black or African American	No	No	NA	NA
59a07638bfd73c00010ea394	471586	4	main	slash	50	circle	local	LVF	yes	present	1	829	z	97.5	95	96.875	96.09375	96.875	90.625	96.875	100	838	815	837	837	837	531.234	0	0	0	0	0	25	12.5	25	12.5	75	23	US	Male	12	Black or African American	No	No	NA	NA
59a07638bfd73c00010ea394	474372	4	main	slash	51	absent	absent	absent	no	absent	1	2000	z	97.5	95	96.875	96.09375	96.875	90.625	96.875	100	838	815	837	837	837	531.234	0	0	0	0	0	25	12.5	25	12.5	75	23	US	Male	12	Black or African American	No	No	NA	NA
59a07638bfd73c00010ea394	476113	4	main	slash	52	square	global	RVF	yes	present	1	757	z	97.5	95	96.875	96.09375	96.875	90.625	96.875	100	838	815	837	837	837	531.234	0	0	0	0	0	25	12.5	25	12.5	75	23	US	Male	12	Black or African American	No	No	NA	NA
59a07638bfd73c00010ea394	477681	4	main	slash	53	circle	global	LVF	yes	present	1	765	z	97.5	95	96.875	96.09375	96.875	90.625	96.875	100	838	815	837	837	837	531.234	0	0	0	0	0	25	12.5	25	12.5	75	23	US	Male	12	Black or African American	No	No	NA	NA
59a07638bfd73c00010ea394	480463	4	main	slash	54	absent	absent	absent	no	absent	1	2000	z	97.5	95	96.875	96.09375	96.875	90.625	96.875	100	838	815	837	837	837	531.234	0	0	0	0	0	25	12.5	25	12.5	75	23	US	Male	12	Black or African American	No	No	NA	NA
59a07638bfd73c00010ea394	483262	4	main	slash	55	absent	absent	absent	no	absent	1	2000	z	97.5	95	96.875	96.09375	96.875	90.625	96.875	100	838	815	837	837	837	531.234	0	0	0	0	0	25	12.5	25	12.5	75	23	US	Male	12	Black or African American	No	No	NA	NA
59a07638bfd73c00010ea394	484829	4	main	slash	56	circle	global	LVF	yes	present	1	721	z	97.5	95	96.875	96.09375	96.875	90.625	96.875	100	838	815	837	837	837	531.234	0	0	0	0	0	25	12.5	25	12.5	75	23	US	Male	12	Black or African American	No	No	NA	NA
59a07638bfd73c00010ea394	486378	4	main	slash	57	square	global	RVF	yes	present	1	742	z	97.5	95	96.875	96.09375	96.875	90.625	96.875	100	838	815	837	837	837	531.234	0	0	0	0	0	25	12.5	25	12.5	75	23	US	Male	12	Black or African American	No	No	NA	NA
59a07638bfd73c00010ea394	489149	4	main	slash	58	square	local	LVF	yes	absent	0	2000	z	97.5	95	96.875	96.09375	96.875	90.625	96.875	100	838	815	837	837	837	531.234	0	0	0	0	0	25	12.5	25	12.5	75	23	US	Male	12	Black or African American	No	No	NA	NA
59a07638bfd73c00010ea394	491852	4	main	slash	59	absent	absent	absent	no	absent	1	2000	z	97.5	95	96.875	96.09375	96.875	90.625	96.875	100	838	815	837	837	837	531.234	0	0	0	0	0	25	12.5	25	12.5	75	23	US	Male	12	Black or African American	No	No	NA	NA
59a07638bfd73c00010ea394	493610	4	main	slash	60	circle	local	LVF	yes	present	1	894	z	97.5	95	96.875	96.09375	96.875	90.625	96.875	100	838	815	837	837	837	531.234	0	0	0	0	0	25	12.5	25	12.5	75	23	US	Male	12	Black or African American	No	No	NA	NA
59a07638bfd73c00010ea394	495594	4	main	slash	61	circle	global	RVF	yes	present	1	950	z	97.5	95	96.875	96.09375	96.875	90.625	96.875	100	838	815	837	837	837	531.234	0	0	0	0	0	25	12.5	25	12.5	75	23	US	Male	12	Black or African American	No	No	NA	NA
59a07638bfd73c00010ea394	497306	4	main	slash	62	square	global	LVF	yes	present	1	917	z	97.5	95	96.875	96.09375	96.875	90.625	96.875	100	838	815	837	837	837	531.234	0	0	0	0	0	25	12.5	25	12.5	75	23	US	Male	12	Black or African American	No	No	NA	NA
59a07638bfd73c00010ea394	499076	4	main	slash	63	square	local	RVF	yes	present	1	949	z	97.5	95	96.875	96.09375	96.875	90.625	96.875	100	838	815	837	837	837	531.234	0	0	0	0	0	25	12.5	25	12.5	75	23	US	Male	12	Black or African American	No	No	NA	NA
59a07638bfd73c00010ea394	501868	4	main	slash	64	absent	absent	absent	no	absent	1	2000	z	97.5	95	96.875	96.09375	96.875	90.625	96.875	100	838	815	837	837	837	531.234	0	0	0	0	0	25	12.5	25	12.5	75	23	US	Male	12	Black or African American	No	No	NA	NA
59a07638bfd73c00010ea394	503618	4	main	slash	65	square	local	RVF	yes	present	1	822	z	97.5	95	96.875	96.09375	96.875	90.625	96.875	100	838	815	837	837	837	531.234	0	0	0	0	0	25	12.5	25	12.5	75	23	US	Male	12	Black or African American	No	No	NA	NA
59a07638bfd73c00010ea394	505266	4	main	slash	66	circle	local	RVF	yes	present	1	803	z	97.5	95	96.875	96.09375	96.875	90.625	96.875	100	838	815	837	837	837	531.234	0	0	0	0	0	25	12.5	25	12.5	75	23	US	Male	12	Black or African American	No	No	NA	NA
59a07638bfd73c00010ea394	506930	4	main	slash	67	circle	global	LVF	yes	present	1	838	z	97.5	95	96.875	96.09375	96.875	90.625	96.875	100	838	815	837	837	837	531.234	0	0	0	0	0	25	12.5	25	12.5	75	23	US	Male	12	Black or African American	No	No	NA	NA
59a07638bfd73c00010ea394	508482	4	main	slash	68	square	local	LVF	yes	present	1	781	z	97.5	95	96.875	96.09375	96.875	90.625	96.875	100	838	815	837	837	837	531.234	0	0	0	0	0	25	12.5	25	12.5	75	23	US	Male	12	Black or African American	No	No	NA	NA
59a07638bfd73c00010ea394	511364	4	main	slash	69	absent	absent	absent	no	absent	1	2000	z	97.5	95	96.875	96.09375	96.875	90.625	96.875	100	838	815	837	837	837	531.234	0	0	0	0	0	25	12.5	25	12.5	75	23	US	Male	12	Black or African American	No	No	NA	NA
59a07638bfd73c00010ea394	513258	4	main	slash	70	circle	global	RVF	yes	present	1	797	z	97.5	95	96.875	96.09375	96.875	90.625	96.875	100	838	815	837	837	837	531.234	0	0	0	0	0	25	12.5	25	12.5	75	23	US	Male	12	Black or African American	No	No	NA	NA
59a07638bfd73c00010ea394	514858	4	main	slash	71	circle	local	RVF	yes	present	1	814	z	97.5	95	96.875	96.09375	96.875	90.625	96.875	100	838	815	837	837	837	531.234	0	0	0	0	0	25	12.5	25	12.5	75	23	US	Male	12	Black or African American	No	No	NA	NA
59a07638bfd73c00010ea394	517628	4	main	slash	72	absent	absent	absent	no	absent	1	2000	z	97.5	95	96.875	96.09375	96.875	90.625	96.875	100	838	815	837	837	837	531.234	0	0	0	0	0	25	12.5	25	12.5	75	23	US	Male	12	Black or African American	No	No	NA	NA
59a07638bfd73c00010ea394	519507	4	main	slash	73	square	global	RVF	yes	present	1	837	z	97.5	95	96.875	96.09375	96.875	90.625	96.875	100	838	815	837	837	837	531.234	0	0	0	0	0	25	12.5	25	12.5	75	23	US	Male	12	Black or African American	No	No	NA	NA
59a07638bfd73c00010ea394	521052	4	main	slash	74	circle	global	RVF	yes	present	1	759	z	97.5	95	96.875	96.09375	96.875	90.625	96.875	100	838	815	837	837	837	531.234	0	0	0	0	0	25	12.5	25	12.5	75	23	US	Male	12	Black or African American	No	No	NA	NA
59a07638bfd73c00010ea394	522482	4	main	slash	75	square	global	LVF	yes	present	1	622	z	97.5	95	96.875	96.09375	96.875	90.625	96.875	100	838	815	837	837	837	531.234	0	0	0	0	0	25	12.5	25	12.5	75	23	US	Male	12	Black or African American	No	No	NA	NA
59a07638bfd73c00010ea394	523962	4	main	slash	76	square	local	LVF	yes	present	1	652	z	97.5	95	96.875	96.09375	96.875	90.625	96.875	100	838	815	837	837	837	531.234	0	0	0	0	0	25	12.5	25	12.5	75	23	US	Male	12	Black or African American	No	No	NA	NA
59a07638bfd73c00010ea394	525546	4	main	slash	77	square	local	RVF	yes	present	1	779	z	97.5	95	96.875	96.09375	96.875	90.625	96.875	100	838	815	837	837	837	531.234	0	0	0	0	0	25	12.5	25	12.5	75	23	US	Male	12	Black or African American	No	No	NA	NA
59a07638bfd73c00010ea394	528333	4	main	slash	78	absent	absent	absent	no	absent	1	2000	z	97.5	95	96.875	96.09375	96.875	90.625	96.875	100	838	815	837	837	837	531.234	0	0	0	0	0	25	12.5	25	12.5	75	23	US	Male	12	Black or African American	No	No	NA	NA
59a07638bfd73c00010ea394	529794	4	main	slash	79	circle	local	RVF	yes	present	1	622	z	97.5	95	96.875	96.09375	96.875	90.625	96.875	100	838	815	837	837	837	531.234	0	0	0	0	0	25	12.5	25	12.5	75	23	US	Male	12	Black or African American	No	No	NA	NA
59a07638bfd73c00010ea394	531234	4	main	slash	80	square	local	LVF	yes	present	1	645	z	97.5	95	96.875	96.09375	96.875	90.625	96.875	100	838	815	837	837	837	531.234	0	0	0	0	0	25	12.5	25	12.5	75	23	US	Male	12	Black or African American	No	No	NA	NA
5dee933631a7e05381da6b02	115610	1	practice	slash	1	absent	absent	absent	no	absent	1	2000	slash	93.75	95	75	99.21875	100	100	100	96.875	373.5	428.5	408.5	515	432.5	538.474	0	0	0	0	0	25	25	25	25	100	33	US	Male	16	Black or African American	No	No	NA	NA
5dee933631a7e05381da6b02	119260	1	practice	slash	2	circle	global	LVF	yes	present	1	679	slash	93.75	95	75	99.21875	100	100	100	96.875	373.5	428.5	408.5	515	432.5	538.474	0	0	0	0	0	25	25	25	25	100	33	US	Male	16	Black or African American	No	No	NA	NA
5dee933631a7e05381da6b02	123584	1	practice	slash	3	circle	local	RVF	yes	absent	0	2000	slash	93.75	95	75	99.21875	100	100	100	96.875	373.5	428.5	408.5	515	432.5	538.474	0	0	0	0	0	25	25	25	25	100	33	US	Male	16	Black or African American	No	No	NA	NA
5dee933631a7e05381da6b02	126653	1	practice	slash	4	square	local	LVF	yes	present	1	881	slash	93.75	95	75	99.21875	100	100	100	96.875	373.5	428.5	408.5	515	432.5	538.474	0	0	0	0	0	25	25	25	25	100	33	US	Male	16	Black or African American	No	No	NA	NA
5dee933631a7e05381da6b02	129501	1	practice	slash	5	square	global	LVF	yes	present	1	658	slash	93.75	95	75	99.21875	100	100	100	96.875	373.5	428.5	408.5	515	432.5	538.474	0	0	0	0	0	25	25	25	25	100	33	US	Male	16	Black or African American	No	No	NA	NA
5dee933631a7e05381da6b02	132324	1	practice	slash	6	circle	local	RVF	yes	present	1	680	slash	93.75	95	75	99.21875	100	100	100	96.875	373.5	428.5	408.5	515	432.5	538.474	0	0	0	0	0	25	25	25	25	100	33	US	Male	16	Black or African American	No	No	NA	NA
5dee933631a7e05381da6b02	135405	1	practice	slash	7	absent	absent	absent	no	present	0	1091	slash	93.75	95	75	99.21875	100	100	100	96.875	373.5	428.5	408.5	515	432.5	538.474	0	0	0	0	0	25	25	25	25	100	33	US	Male	16	Black or African American	No	No	NA	NA
5dee933631a7e05381da6b02	138063	1	practice	slash	8	circle	global	RVF	yes	present	1	669	slash	93.75	95	75	99.21875	100	100	100	96.875	373.5	428.5	408.5	515	432.5	538.474	0	0	0	0	0	25	25	25	25	100	33	US	Male	16	Black or African American	No	No	NA	NA
5dee933631a7e05381da6b02	141969	1	practice	slash	9	absent	absent	absent	no	absent	1	2000	slash	93.75	95	75	99.21875	100	100	100	96.875	373.5	428.5	408.5	515	432.5	538.474	0	0	0	0	0	25	25	25	25	100	33	US	Male	16	Black or African American	No	No	NA	NA
5dee933631a7e05381da6b02	144629	1	practice	slash	10	square	global	LVF	yes	present	1	672	slash	93.75	95	75	99.21875	100	100	100	96.875	373.5	428.5	408.5	515	432.5	538.474	0	0	0	0	0	25	25	25	25	100	33	US	Male	16	Black or African American	No	No	NA	NA
5dee933631a7e05381da6b02	147356	1	practice	slash	11	square	local	LVF	yes	present	1	747	slash	93.75	95	75	99.21875	100	100	100	96.875	373.5	428.5	408.5	515	432.5	538.474	0	0	0	0	0	25	25	25	25	100	33	US	Male	16	Black or African American	No	No	NA	NA
5dee933631a7e05381da6b02	149899	1	practice	slash	12	square	global	RVF	yes	present	1	621	slash	93.75	95	75	99.21875	100	100	100	96.875	373.5	428.5	408.5	515	432.5	538.474	0	0	0	0	0	25	25	25	25	100	33	US	Male	16	Black or African American	No	No	NA	NA
5dee933631a7e05381da6b02	152420	1	practice	slash	13	circle	global	RVF	yes	present	1	622	slash	93.75	95	75	99.21875	100	100	100	96.875	373.5	428.5	408.5	515	432.5	538.474	0	0	0	0	0	25	25	25	25	100	33	US	Male	16	Black or African American	No	No	NA	NA
5dee933631a7e05381da6b02	156300	1	practice	slash	14	absent	absent	absent	no	absent	1	2000	slash	93.75	95	75	99.21875	100	100	100	96.875	373.5	428.5	408.5	515	432.5	538.474	0	0	0	0	0	25	25	25	25	100	33	US	Male	16	Black or African American	No	No	NA	NA
5dee933631a7e05381da6b02	159388	1	practice	slash	15	circle	local	RVF	yes	present	1	1150	slash	93.75	95	75	99.21875	100	100	100	96.875	373.5	428.5	408.5	515	432.5	538.474	0	0	0	0	0	25	25	25	25	100	33	US	Male	16	Black or African American	No	No	NA	NA
5dee933631a7e05381da6b02	162244	1	practice	slash	16	circle	global	LVF	yes	present	1	820	slash	93.75	95	75	99.21875	100	100	100	96.875	373.5	428.5	408.5	515	432.5	538.474	0	0	0	0	0	25	25	25	25	100	33	US	Male	16	Black or African American	No	No	NA	NA
5dee933631a7e05381da6b02	168914	2	main	slash	1	square	local	RVF	yes	present	1	851	slash	93.75	95	75	99.21875	100	100	100	96.875	373.5	428.5	408.5	515	432.5	538.474	0	0	0	0	0	25	25	25	25	100	33	US	Male	16	Black or African American	No	No	NA	NA
5dee933631a7e05381da6b02	171090	2	main	slash	2	square	global	LVF	yes	present	1	741	slash	93.75	95	75	99.21875	100	100	100	96.875	373.5	428.5	408.5	515	432.5	538.474	0	0	0	0	0	25	25	25	25	100	33	US	Male	16	Black or African American	No	No	NA	NA
5dee933631a7e05381da6b02	173010	2	main	slash	3	circle	local	LVF	yes	present	1	709	slash	93.75	95	75	99.21875	100	100	100	96.875	373.5	428.5	408.5	515	432.5	538.474	0	0	0	0	0	25	25	25	25	100	33	US	Male	16	Black or African American	No	No	NA	NA
5dee933631a7e05381da6b02	174762	2	main	slash	4	square	local	LVF	yes	present	1	676	slash	93.75	95	75	99.21875	100	100	100	96.875	373.5	428.5	408.5	515	432.5	538.474	0	0	0	0	0	25	25	25	25	100	33	US	Male	16	Black or African American	No	No	NA	NA
5dee933631a7e05381da6b02	176970	2	main	slash	5	absent	absent	absent	no	present	0	1099	slash	93.75	95	75	99.21875	100	100	100	96.875	373.5	428.5	408.5	515	432.5	538.474	0	0	0	0	0	25	25	25	25	100	33	US	Male	16	Black or African American	No	No	NA	NA
5dee933631a7e05381da6b02	178978	2	main	slash	6	square	local	RVF	yes	present	1	655	slash	93.75	95	75	99.21875	100	100	100	96.875	373.5	428.5	408.5	515	432.5	538.474	0	0	0	0	0	25	25	25	25	100	33	US	Male	16	Black or African American	No	No	NA	NA
5dee933631a7e05381da6b02	182075	2	main	slash	7	absent	absent	absent	no	absent	1	2000	slash	93.75	95	75	99.21875	100	100	100	96.875	373.5	428.5	408.5	515	432.5	538.474	0	0	0	0	0	25	25	25	25	100	33	US	Male	16	Black or African American	No	No	NA	NA
5dee933631a7e05381da6b02	183682	2	main	slash	8	circle	global	LVF	yes	present	1	620	slash	93.75	95	75	99.21875	100	100	100	96.875	373.5	428.5	408.5	515	432.5	538.474	0	0	0	0	0	25	25	25	25	100	33	US	Male	16	Black or African American	No	No	NA	NA
5dee933631a7e05381da6b02	185586	2	main	slash	9	circle	global	RVF	yes	present	1	656	slash	93.75	95	75	99.21875	100	100	100	96.875	373.5	428.5	408.5	515	432.5	538.474	0	0	0	0	0	25	25	25	25	100	33	US	Male	16	Black or African American	No	No	NA	NA
5dee933631a7e05381da6b02	187442	2	main	slash	10	square	local	RVF	yes	present	1	727	slash	93.75	95	75	99.21875	100	100	100	96.875	373.5	428.5	408.5	515	432.5	538.474	0	0	0	0	0	25	25	25	25	100	33	US	Male	16	Black or African American	No	No	NA	NA
5dee933631a7e05381da6b02	189322	2	main	slash	11	circle	global	RVF	yes	present	1	772	slash	93.75	95	75	99.21875	100	100	100	96.875	373.5	428.5	408.5	515	432.5	538.474	0	0	0	0	0	25	25	25	25	100	33	US	Male	16	Black or African American	No	No	NA	NA
5dee933631a7e05381da6b02	191202	2	main	slash	12	circle	local	RVF	yes	present	1	783	slash	93.75	95	75	99.21875	100	100	100	96.875	373.5	428.5	408.5	515	432.5	538.474	0	0	0	0	0	25	25	25	25	100	33	US	Male	16	Black or African American	No	No	NA	NA
5dee933631a7e05381da6b02	193194	2	main	slash	13	circle	local	LVF	yes	present	1	856	slash	93.75	95	75	99.21875	100	100	100	96.875	373.5	428.5	408.5	515	432.5	538.474	0	0	0	0	0	25	25	25	25	100	33	US	Male	16	Black or African American	No	No	NA	NA
5dee933631a7e05381da6b02	195490	2	main	slash	14	square	local	RVF	yes	present	1	1050	slash	93.75	95	75	99.21875	100	100	100	96.875	373.5	428.5	408.5	515	432.5	538.474	0	0	0	0	0	25	25	25	25	100	33	US	Male	16	Black or African American	No	No	NA	NA
5dee933631a7e05381da6b02	198758	2	main	slash	15	absent	absent	absent	no	absent	1	2000	slash	93.75	95	75	99.21875	100	100	100	96.875	373.5	428.5	408.5	515	432.5	538.474	0	0	0	0	0	25	25	25	25	100	33	US	Male	16	Black or African American	No	No	NA	NA
5dee933631a7e05381da6b02	201828	2	main	slash	16	absent	absent	absent	no	absent	1	2000	slash	93.75	95	75	99.21875	100	100	100	96.875	373.5	428.5	408.5	515	432.5	538.474	0	0	0	0	0	25	25	25	25	100	33	US	Male	16	Black or African American	No	No	NA	NA
5dee933631a7e05381da6b02	203546	2	main	slash	17	square	global	RVF	yes	present	1	648	slash	93.75	95	75	99.21875	100	100	100	96.875	373.5	428.5	408.5	515	432.5	538.474	0	0	0	0	0	25	25	25	25	100	33	US	Male	16	Black or African American	No	No	NA	NA
5dee933631a7e05381da6b02	205314	2	main	slash	18	square	global	LVF	yes	present	1	681	slash	93.75	95	75	99.21875	100	100	100	96.875	373.5	428.5	408.5	515	432.5	538.474	0	0	0	0	0	25	25	25	25	100	33	US	Male	16	Black or African American	No	No	NA	NA
5dee933631a7e05381da6b02	207210	2	main	slash	19	square	global	RVF	yes	present	1	892	slash	93.75	95	75	99.21875	100	100	100	96.875	373.5	428.5	408.5	515	432.5	538.474	0	0	0	0	0	25	25	25	25	100	33	US	Male	16	Black or African American	No	No	NA	NA
5dee933631a7e05381da6b02	210253	2	main	slash	20	absent	absent	absent	no	absent	1	2000	slash	93.75	95	75	99.21875	100	100	100	96.875	373.5	428.5	408.5	515	432.5	538.474	0	0	0	0	0	25	25	25	25	100	33	US	Male	16	Black or African American	No	No	NA	NA
5dee933631a7e05381da6b02	211922	2	main	slash	21	square	local	LVF	yes	present	1	649	slash	93.75	95	75	99.21875	100	100	100	96.875	373.5	428.5	408.5	515	432.5	538.474	0	0	0	0	0	25	25	25	25	100	33	US	Male	16	Black or African American	No	No	NA	NA
5dee933631a7e05381da6b02	213754	2	main	slash	22	circle	local	RVF	yes	present	1	763	slash	93.75	95	75	99.21875	100	100	100	96.875	373.5	428.5	408.5	515	432.5	538.474	0	0	0	0	0	25	25	25	25	100	33	US	Male	16	Black or African American	No	No	NA	NA
5dee933631a7e05381da6b02	215474	2	main	slash	23	square	local	LVF	yes	present	1	681	slash	93.75	95	75	99.21875	100	100	100	96.875	373.5	428.5	408.5	515	432.5	538.474	0	0	0	0	0	25	25	25	25	100	33	US	Male	16	Black or African American	No	No	NA	NA
5dee933631a7e05381da6b02	217314	2	main	slash	24	square	global	RVF	yes	present	1	819	slash	93.75	95	75	99.21875	100	100	100	96.875	373.5	428.5	408.5	515	432.5	538.474	0	0	0	0	0	25	25	25	25	100	33	US	Male	16	Black or African American	No	No	NA	NA
5dee933631a7e05381da6b02	220296	2	main	slash	25	absent	absent	absent	no	absent	1	2000	slash	93.75	95	75	99.21875	100	100	100	96.875	373.5	428.5	408.5	515	432.5	538.474	0	0	0	0	0	25	25	25	25	100	33	US	Male	16	Black or African American	No	No	NA	NA
5dee933631a7e05381da6b02	221938	2	main	slash	26	square	global	LVF	yes	present	1	722	slash	93.75	95	75	99.21875	100	100	100	96.875	373.5	428.5	408.5	515	432.5	538.474	0	0	0	0	0	25	25	25	25	100	33	US	Male	16	Black or African American	No	No	NA	NA
5dee933631a7e05381da6b02	223794	2	main	slash	27	circle	global	RVF	yes	present	1	826	slash	93.75	95	75	99.21875	100	100	100	96.875	373.5	428.5	408.5	515	432.5	538.474	0	0	0	0	0	25	25	25	25	100	33	US	Male	16	Black or African American	No	No	NA	NA
5dee933631a7e05381da6b02	225570	2	main	slash	28	circle	global	LVF	yes	present	1	817	slash	93.75	95	75	99.21875	100	100	100	96.875	373.5	428.5	408.5	515	432.5	538.474	0	0	0	0	0	25	25	25	25	100	33	US	Male	16	Black or African American	No	No	NA	NA
5dee933631a7e05381da6b02	227706	2	main	slash	29	absent	absent	absent	no	present	0	1201	slash	93.75	95	75	99.21875	100	100	100	96.875	373.5	428.5	408.5	515	432.5	538.474	0	0	0	0	0	25	25	25	25	100	33	US	Male	16	Black or African American	No	No	NA	NA
5dee933631a7e05381da6b02	229554	2	main	slash	30	circle	global	LVF	yes	present	1	747	slash	93.75	95	75	99.21875	100	100	100	96.875	373.5	428.5	408.5	515	432.5	538.474	0	0	0	0	0	25	25	25	25	100	33	US	Male	16	Black or African American	No	No	NA	NA
5dee933631a7e05381da6b02	231514	2	main	slash	31	circle	global	RVF	yes	present	1	1005	slash	93.75	95	75	99.21875	100	100	100	96.875	373.5	428.5	408.5	515	432.5	538.474	0	0	0	0	0	25	25	25	25	100	33	US	Male	16	Black or African American	No	No	NA	NA
5dee933631a7e05381da6b02	234444	2	main	slash	32	absent	absent	absent	no	absent	1	2000	slash	93.75	95	75	99.21875	100	100	100	96.875	373.5	428.5	408.5	515	432.5	538.474	0	0	0	0	0	25	25	25	25	100	33	US	Male	16	Black or African American	No	No	NA	NA
5dee933631a7e05381da6b02	236362	2	main	slash	33	circle	local	RVF	yes	present	1	749	slash	93.75	95	75	99.21875	100	100	100	96.875	373.5	428.5	408.5	515	432.5	538.474	0	0	0	0	0	25	25	25	25	100	33	US	Male	16	Black or African American	No	No	NA	NA
5dee933631a7e05381da6b02	238298	2	main	slash	34	square	global	LVF	yes	present	1	949	slash	93.75	95	75	99.21875	100	100	100	96.875	373.5	428.5	408.5	515	432.5	538.474	0	0	0	0	0	25	25	25	25	100	33	US	Male	16	Black or African American	No	No	NA	NA
5dee933631a7e05381da6b02	240122	2	main	slash	35	circle	local	RVF	yes	present	1	788	slash	93.75	95	75	99.21875	100	100	100	96.875	373.5	428.5	408.5	515	432.5	538.474	0	0	0	0	0	25	25	25	25	100	33	US	Male	16	Black or African American	No	No	NA	NA
5dee933631a7e05381da6b02	241906	2	main	slash	36	circle	local	LVF	yes	present	1	786	slash	93.75	95	75	99.21875	100	100	100	96.875	373.5	428.5	408.5	515	432.5	538.474	0	0	0	0	0	25	25	25	25	100	33	US	Male	16	Black or African American	No	No	NA	NA
5dee933631a7e05381da6b02	243498	2	main	slash	37	square	global	RVF	yes	present	1	644	slash	93.75	95	75	99.21875	100	100	100	96.875	373.5	428.5	408.5	515	432.5	538.474	0	0	0	0	0	25	25	25	25	100	33	US	Male	16	Black or African American	No	No	NA	NA
5dee933631a7e05381da6b02	245226	2	main	slash	38	square	local	LVF	yes	present	1	603	slash	93.75	95	75	99.21875	100	100	100	96.875	373.5	428.5	408.5	515	432.5	538.474	0	0	0	0	0	25	25	25	25	100	33	US	Male	16	Black or African American	No	No	NA	NA
5dee933631a7e05381da6b02	246954	2	main	slash	39	circle	global	LVF	yes	present	1	696	slash	93.75	95	75	99.21875	100	100	100	96.875	373.5	428.5	408.5	515	432.5	538.474	0	0	0	0	0	25	25	25	25	100	33	US	Male	16	Black or African American	No	No	NA	NA
5dee933631a7e05381da6b02	248706	2	main	slash	40	circle	local	LVF	yes	present	1	781	slash	93.75	95	75	99.21875	100	100	100	96.875	373.5	428.5	408.5	515	432.5	538.474	0	0	0	0	0	25	25	25	25	100	33	US	Male	16	Black or African American	No	No	NA	NA
5dee933631a7e05381da6b02	251678	2	main	slash	41	absent	absent	absent	no	absent	1	2000	slash	93.75	95	75	99.21875	100	100	100	96.875	373.5	428.5	408.5	515	432.5	538.474	0	0	0	0	0	25	25	25	25	100	33	US	Male	16	Black or African American	No	No	NA	NA
5dee933631a7e05381da6b02	253562	2	main	slash	42	circle	local	LVF	yes	present	1	581	slash	93.75	95	75	99.21875	100	100	100	96.875	373.5	428.5	408.5	515	432.5	538.474	0	0	0	0	0	25	25	25	25	100	33	US	Male	16	Black or African American	No	No	NA	NA
5dee933631a7e05381da6b02	255290	2	main	slash	43	square	local	LVF	yes	present	1	690	slash	93.75	95	75	99.21875	100	100	100	96.875	373.5	428.5	408.5	515	432.5	538.474	0	0	0	0	0	25	25	25	25	100	33	US	Male	16	Black or African American	No	No	NA	NA
5dee933631a7e05381da6b02	258301	2	main	slash	44	absent	absent	absent	no	absent	1	2000	slash	93.75	95	75	99.21875	100	100	100	96.875	373.5	428.5	408.5	515	432.5	538.474	0	0	0	0	0	25	25	25	25	100	33	US	Male	16	Black or African American	No	No	NA	NA
5dee933631a7e05381da6b02	260082	2	main	slash	45	square	global	RVF	yes	present	1	677	slash	93.75	95	75	99.21875	100	100	100	96.875	373.5	428.5	408.5	515	432.5	538.474	0	0	0	0	0	25	25	25	25	100	33	US	Male	16	Black or African American	No	No	NA	NA
5dee933631a7e05381da6b02	261770	2	main	slash	46	circle	local	RVF	yes	present	1	714	slash	93.75	95	75	99.21875	100	100	100	96.875	373.5	428.5	408.5	515	432.5	538.474	0	0	0	0	0	25	25	25	25	100	33	US	Male	16	Black or African American	No	No	NA	NA
5dee933631a7e05381da6b02	263514	2	main	slash	47	square	local	LVF	yes	present	1	773	slash	93.75	95	75	99.21875	100	100	100	96.875	373.5	428.5	408.5	515	432.5	538.474	0	0	0	0	0	25	25	25	25	100	33	US	Male	16	Black or African American	No	No	NA	NA
5dee933631a7e05381da6b02	265386	2	main	slash	48	absent	absent	absent	no	present	0	943	slash	93.75	95	75	99.21875	100	100	100	96.875	373.5	428.5	408.5	515	432.5	538.474	0	0	0	0	0	25	25	25	25	100	33	US	Male	16	Black or African American	No	No	NA	NA
5dee933631a7e05381da6b02	267130	2	main	slash	49	square	global	LVF	yes	present	1	768	slash	93.75	95	75	99.21875	100	100	100	96.875	373.5	428.5	408.5	515	432.5	538.474	0	0	0	0	0	25	25	25	25	100	33	US	Male	16	Black or African American	No	No	NA	NA
5dee933631a7e05381da6b02	268930	2	main	slash	50	circle	local	LVF	yes	present	1	850	slash	93.75	95	75	99.21875	100	100	100	96.875	373.5	428.5	408.5	515	432.5	538.474	0	0	0	0	0	25	25	25	25	100	33	US	Male	16	Black or African American	No	No	NA	NA
5dee933631a7e05381da6b02	271831	2	main	slash	51	absent	absent	absent	no	absent	1	2000	slash	93.75	95	75	99.21875	100	100	100	96.875	373.5	428.5	408.5	515	432.5	538.474	0	0	0	0	0	25	25	25	25	100	33	US	Male	16	Black or African American	No	No	NA	NA
5dee933631a7e05381da6b02	273547	2	main	slash	52	circle	local	LVF	yes	present	1	662	slash	93.75	95	75	99.21875	100	100	100	96.875	373.5	428.5	408.5	515	432.5	538.474	0	0	0	0	0	25	25	25	25	100	33	US	Male	16	Black or African American	No	No	NA	NA
5dee933631a7e05381da6b02	277482	2	main	slash	53	square	global	RVF	yes	present	1	611	slash	93.75	95	75	99.21875	100	100	100	96.875	373.5	428.5	408.5	515	432.5	538.474	0	0	0	0	0	25	25	25	25	100	33	US	Male	16	Black or African American	No	No	NA	NA
5dee933631a7e05381da6b02	279162	2	main	slash	54	square	global	LVF	yes	present	1	588	slash	93.75	95	75	99.21875	100	100	100	96.875	373.5	428.5	408.5	515	432.5	538.474	0	0	0	0	0	25	25	25	25	100	33	US	Male	16	Black or African American	No	No	NA	NA
5dee933631a7e05381da6b02	280754	2	main	slash	55	square	local	RVF	yes	present	1	663	slash	93.75	95	75	99.21875	100	100	100	96.875	373.5	428.5	408.5	515	432.5	538.474	0	0	0	0	0	25	25	25	25	100	33	US	Male	16	Black or African American	No	No	NA	NA
5dee933631a7e05381da6b02	282250	2	main	slash	56	circle	global	RVF	yes	present	1	573	slash	93.75	95	75	99.21875	100	100	100	96.875	373.5	428.5	408.5	515	432.5	538.474	0	0	0	0	0	25	25	25	25	100	33	US	Male	16	Black or African American	No	No	NA	NA
5dee933631a7e05381da6b02	283682	2	main	slash	57	square	local	LVF	yes	present	1	520	slash	93.75	95	75	99.21875	100	100	100	96.875	373.5	428.5	408.5	515	432.5	538.474	0	0	0	0	0	25	25	25	25	100	33	US	Male	16	Black or African American	No	No	NA	NA
5dee933631a7e05381da6b02	284914	2	main	slash	58	circle	global	RVF	yes	present	1	418	slash	93.75	95	75	99.21875	100	100	100	96.875	373.5	428.5	408.5	515	432.5	538.474	0	0	0	0	0	25	25	25	25	100	33	US	Male	16	Black or African American	No	No	NA	NA
5dee933631a7e05381da6b02	286170	2	main	slash	59	square	global	RVF	yes	present	1	439	slash	93.75	95	75	99.21875	100	100	100	96.875	373.5	428.5	408.5	515	432.5	538.474	0	0	0	0	0	25	25	25	25	100	33	US	Male	16	Black or African American	No	No	NA	NA
5dee933631a7e05381da6b02	287442	2	main	slash	60	circle	local	LVF	yes	present	1	493	slash	93.75	95	75	99.21875	100	100	100	96.875	373.5	428.5	408.5	515	432.5	538.474	0	0	0	0	0	25	25	25	25	100	33	US	Male	16	Black or African American	No	No	NA	NA
5dee933631a7e05381da6b02	289498	2	main	slash	61	square	local	RVF	yes	present	1	1298	slash	93.75	95	75	99.21875	100	100	100	96.875	373.5	428.5	408.5	515	432.5	538.474	0	0	0	0	0	25	25	25	25	100	33	US	Male	16	Black or African American	No	No	NA	NA
5dee933631a7e05381da6b02	290858	2	main	slash	62	circle	local	RVF	yes	present	1	589	slash	93.75	95	75	99.21875	100	100	100	96.875	373.5	428.5	408.5	515	432.5	538.474	0	0	0	0	0	25	25	25	25	100	33	US	Male	16	Black or African American	No	No	NA	NA
5dee933631a7e05381da6b02	293653	2	main	slash	63	absent	absent	absent	no	absent	1	2000	slash	93.75	95	75	99.21875	100	100	100	96.875	373.5	428.5	408.5	515	432.5	538.474	0	0	0	0	0	25	25	25	25	100	33	US	Male	16	Black or African American	No	No	NA	NA
5dee933631a7e05381da6b02	296314	2	main	slash	64	circle	global	RVF	yes	present	1	1691	slash	93.75	95	75	99.21875	100	100	100	96.875	373.5	428.5	408.5	515	432.5	538.474	0	0	0	0	0	25	25	25	25	100	33	US	Male	16	Black or African American	No	No	NA	NA
5dee933631a7e05381da6b02	298906	2	main	slash	65	square	global	LVF	yes	present	1	1213	slash	93.75	95	75	99.21875	100	100	100	96.875	373.5	428.5	408.5	515	432.5	538.474	0	0	0	0	0	25	25	25	25	100	33	US	Male	16	Black or African American	No	No	NA	NA
5dee933631a7e05381da6b02	301961	2	main	slash	66	absent	absent	absent	no	absent	1	2000	slash	93.75	95	75	99.21875	100	100	100	96.875	373.5	428.5	408.5	515	432.5	538.474	0	0	0	0	0	25	25	25	25	100	33	US	Male	16	Black or African American	No	No	NA	NA
5dee933631a7e05381da6b02	303594	2	main	slash	67	square	local	RVF	yes	present	1	580	slash	93.75	95	75	99.21875	100	100	100	96.875	373.5	428.5	408.5	515	432.5	538.474	0	0	0	0	0	25	25	25	25	100	33	US	Male	16	Black or African American	No	No	NA	NA
5dee933631a7e05381da6b02	305290	2	main	slash	68	circle	global	LVF	yes	present	1	441	slash	93.75	95	75	99.21875	100	100	100	96.875	373.5	428.5	408.5	515	432.5	538.474	0	0	0	0	0	25	25	25	25	100	33	US	Male	16	Black or African American	No	No	NA	NA
5dee933631a7e05381da6b02	306842	2	main	slash	69	square	global	LVF	yes	present	1	390	slash	93.75	95	75	99.21875	100	100	100	96.875	373.5	428.5	408.5	515	432.5	538.474	0	0	0	0	0	25	25	25	25	100	33	US	Male	16	Black or African American	No	No	NA	NA
5dee933631a7e05381da6b02	308168	2	main	slash	70	circle	global	LVF	yes	present	1	376	slash	93.75	95	75	99.21875	100	100	100	96.875	373.5	428.5	408.5	515	432.5	538.474	0	0	0	0	0	25	25	25	25	100	33	US	Male	16	Black or African American	No	No	NA	NA
5dee933631a7e05381da6b02	309378	2	main	slash	71	absent	absent	absent	no	present	0	291	slash	93.75	95	75	99.21875	100	100	100	96.875	373.5	428.5	408.5	515	432.5	538.474	0	0	0	0	0	25	25	25	25	100	33	US	Male	16	Black or African American	No	No	NA	NA
5dee933631a7e05381da6b02	310898	2	main	slash	72	circle	global	LVF	yes	present	1	360	slash	93.75	95	75	99.21875	100	100	100	96.875	373.5	428.5	408.5	515	432.5	538.474	0	0	0	0	0	25	25	25	25	100	33	US	Male	16	Black or African American	No	No	NA	NA
5dee933631a7e05381da6b02	312322	2	main	slash	73	circle	local	RVF	yes	present	1	532	slash	93.75	95	75	99.21875	100	100	100	96.875	373.5	428.5	408.5	515	432.5	538.474	0	0	0	0	0	25	25	25	25	100	33	US	Male	16	Black or African American	No	No	NA	NA
5dee933631a7e05381da6b02	313658	2	main	slash	74	circle	global	LVF	yes	present	1	450	slash	93.75	95	75	99.21875	100	100	100	96.875	373.5	428.5	408.5	515	432.5	538.474	0	0	0	0	0	25	25	25	25	100	33	US	Male	16	Black or African American	No	No	NA	NA
5dee933631a7e05381da6b02	315010	2	main	slash	75	square	global	RVF	yes	present	1	467	slash	93.75	95	75	99.21875	100	100	100	96.875	373.5	428.5	408.5	515	432.5	538.474	0	0	0	0	0	25	25	25	25	100	33	US	Male	16	Black or African American	No	No	NA	NA
5dee933631a7e05381da6b02	316194	2	main	slash	76	square	local	LVF	yes	present	1	266	slash	93.75	95	75	99.21875	100	100	100	96.875	373.5	428.5	408.5	515	432.5	538.474	0	0	0	0	0	25	25	25	25	100	33	US	Male	16	Black or African American	No	No	NA	NA
5dee933631a7e05381da6b02	317498	2	main	slash	77	square	local	RVF	yes	present	1	387	slash	93.75	95	75	99.21875	100	100	100	96.875	373.5	428.5	408.5	515	432.5	538.474	0	0	0	0	0	25	25	25	25	100	33	US	Male	16	Black or African American	No	No	NA	NA
5dee933631a7e05381da6b02	318666	2	main	slash	78	circle	local	RVF	yes	present	1	269	slash	93.75	95	75	99.21875	100	100	100	96.875	373.5	428.5	408.5	515	432.5	538.474	0	0	0	0	0	25	25	25	25	100	33	US	Male	16	Black or African American	No	No	NA	NA
5dee933631a7e05381da6b02	319842	2	main	slash	79	absent	absent	absent	no	present	0	277	slash	93.75	95	75	99.21875	100	100	100	96.875	373.5	428.5	408.5	515	432.5	538.474	0	0	0	0	0	25	25	25	25	100	33	US	Male	16	Black or African American	No	No	NA	NA
5dee933631a7e05381da6b02	321834	2	main	slash	80	circle	global	RVF	yes	present	1	701	slash	93.75	95	75	99.21875	100	100	100	96.875	373.5	428.5	408.5	515	432.5	538.474	0	0	0	0	0	25	25	25	25	100	33	US	Male	16	Black or African American	No	No	NA	NA
5dee933631a7e05381da6b02	366527	3	practice	z	1	square	global	LVF	yes	present	1	378	slash	93.75	95	75	99.21875	100	100	100	96.875	373.5	428.5	408.5	515	432.5	538.474	0	0	0	0	0	25	25	25	25	100	33	US	Male	16	Black or African American	No	No	NA	NA
5dee933631a7e05381da6b02	369188	3	practice	z	2	square	global	RVF	yes	present	1	490	slash	93.75	95	75	99.21875	100	100	100	96.875	373.5	428.5	408.5	515	432.5	538.474	0	0	0	0	0	25	25	25	25	100	33	US	Male	16	Black or African American	No	No	NA	NA
5dee933631a7e05381da6b02	371756	3	practice	z	3	circle	local	RVF	yes	present	1	522	slash	93.75	95	75	99.21875	100	100	100	96.875	373.5	428.5	408.5	515	432.5	538.474	0	0	0	0	0	25	25	25	25	100	33	US	Male	16	Black or African American	No	No	NA	NA
5dee933631a7e05381da6b02	375753	3	practice	z	4	absent	absent	absent	no	absent	1	2000	slash	93.75	95	75	99.21875	100	100	100	96.875	373.5	428.5	408.5	515	432.5	538.474	0	0	0	0	0	25	25	25	25	100	33	US	Male	16	Black or African American	No	No	NA	NA
5dee933631a7e05381da6b02	378324	3	practice	z	5	circle	global	LVF	yes	present	1	734	slash	93.75	95	75	99.21875	100	100	100	96.875	373.5	428.5	408.5	515	432.5	538.474	0	0	0	0	0	25	25	25	25	100	33	US	Male	16	Black or African American	No	No	NA	NA
5dee933631a7e05381da6b02	381045	3	practice	z	6	square	global	LVF	yes	present	1	701	slash	93.75	95	75	99.21875	100	100	100	96.875	373.5	428.5	408.5	515	432.5	538.474	0	0	0	0	0	25	25	25	25	100	33	US	Male	16	Black or African American	No	No	NA	NA
5dee933631a7e05381da6b02	383845	3	practice	z	7	square	local	LVF	yes	present	1	666	slash	93.75	95	75	99.21875	100	100	100	96.875	373.5	428.5	408.5	515	432.5	538.474	0	0	0	0	0	25	25	25	25	100	33	US	Male	16	Black or African American	No	No	NA	NA
5dee933631a7e05381da6b02	386421	3	practice	z	8	circle	local	RVF	yes	present	1	588	slash	93.75	95	75	99.21875	100	100	100	96.875	373.5	428.5	408.5	515	432.5	538.474	0	0	0	0	0	25	25	25	25	100	33	US	Male	16	Black or African American	No	No	NA	NA
5dee933631a7e05381da6b02	389012	3	practice	z	9	circle	local	RVF	yes	present	1	578	slash	93.75	95	75	99.21875	100	100	100	96.875	373.5	428.5	408.5	515	432.5	538.474	0	0	0	0	0	25	25	25	25	100	33	US	Male	16	Black or African American	No	No	NA	NA
5dee933631a7e05381da6b02	391589	3	practice	z	10	circle	global	LVF	yes	present	1	552	slash	93.75	95	75	99.21875	100	100	100	96.875	373.5	428.5	408.5	515	432.5	538.474	0	0	0	0	0	25	25	25	25	100	33	US	Male	16	Black or African American	No	No	NA	NA
5dee933631a7e05381da6b02	394268	3	practice	z	11	square	local	LVF	yes	present	1	678	slash	93.75	95	75	99.21875	100	100	100	96.875	373.5	428.5	408.5	515	432.5	538.474	0	0	0	0	0	25	25	25	25	100	33	US	Male	16	Black or African American	No	No	NA	NA
5dee933631a7e05381da6b02	396948	3	practice	z	12	circle	global	RVF	yes	present	1	622	slash	93.75	95	75	99.21875	100	100	100	96.875	373.5	428.5	408.5	515	432.5	538.474	0	0	0	0	0	25	25	25	25	100	33	US	Male	16	Black or African American	No	No	NA	NA
5dee933631a7e05381da6b02	400961	3	practice	z	13	absent	absent	absent	no	absent	1	2000	slash	93.75	95	75	99.21875	100	100	100	96.875	373.5	428.5	408.5	515	432.5	538.474	0	0	0	0	0	25	25	25	25	100	33	US	Male	16	Black or African American	No	No	NA	NA
5dee933631a7e05381da6b02	403676	3	practice	z	14	circle	global	RVF	yes	present	1	677	slash	93.75	95	75	99.21875	100	100	100	96.875	373.5	428.5	408.5	515	432.5	538.474	0	0	0	0	0	25	25	25	25	100	33	US	Male	16	Black or African American	No	No	NA	NA
5dee933631a7e05381da6b02	407701	3	practice	z	15	absent	absent	absent	no	absent	1	2000	slash	93.75	95	75	99.21875	100	100	100	96.875	373.5	428.5	408.5	515	432.5	538.474	0	0	0	0	0	25	25	25	25	100	33	US	Male	16	Black or African American	No	No	NA	NA
5dee933631a7e05381da6b02	411655	3	practice	z	16	absent	absent	absent	no	absent	1	2000	slash	93.75	95	75	99.21875	100	100	100	96.875	373.5	428.5	408.5	515	432.5	538.474	0	0	0	0	0	25	25	25	25	100	33	US	Male	16	Black or African American	No	No	NA	NA
5dee933631a7e05381da6b02	415058	4	main	z	1	circle	local	RVF	yes	present	1	515	slash	93.75	95	75	99.21875	100	100	100	96.875	373.5	428.5	408.5	515	432.5	538.474	0	0	0	0	0	25	25	25	25	100	33	US	Male	16	Black or African American	No	No	NA	NA
5dee933631a7e05381da6b02	416618	4	main	z	2	square	local	RVF	yes	present	1	323	slash	93.75	95	75	99.21875	100	100	100	96.875	373.5	428.5	408.5	515	432.5	538.474	0	0	0	0	0	25	25	25	25	100	33	US	Male	16	Black or African American	No	No	NA	NA
5dee933631a7e05381da6b02	419696	4	main	z	3	absent	absent	absent	no	absent	1	2000	slash	93.75	95	75	99.21875	100	100	100	96.875	373.5	428.5	408.5	515	432.5	538.474	0	0	0	0	0	25	25	25	25	100	33	US	Male	16	Black or African American	No	No	NA	NA
5dee933631a7e05381da6b02	421074	4	main	z	4	circle	global	RVF	yes	present	1	408	slash	93.75	95	75	99.21875	100	100	100	96.875	373.5	428.5	408.5	515	432.5	538.474	0	0	0	0	0	25	25	25	25	100	33	US	Male	16	Black or African American	No	No	NA	NA
5dee933631a7e05381da6b02	422682	4	main	z	5	square	local	RVF	yes	present	1	515	slash	93.75	95	75	99.21875	100	100	100	96.875	373.5	428.5	408.5	515	432.5	538.474	0	0	0	0	0	25	25	25	25	100	33	US	Male	16	Black or African American	No	No	NA	NA
5dee933631a7e05381da6b02	424178	4	main	z	6	square	local	LVF	yes	present	1	426	slash	93.75	95	75	99.21875	100	100	100	96.875	373.5	428.5	408.5	515	432.5	538.474	0	0	0	0	0	25	25	25	25	100	33	US	Male	16	Black or African American	No	No	NA	NA
5dee933631a7e05381da6b02	425682	4	main	z	7	square	global	RVF	yes	present	1	479	slash	93.75	95	75	99.21875	100	100	100	96.875	373.5	428.5	408.5	515	432.5	538.474	0	0	0	0	0	25	25	25	25	100	33	US	Male	16	Black or African American	No	No	NA	NA
5dee933631a7e05381da6b02	427026	4	main	z	8	circle	local	LVF	yes	present	1	388	slash	93.75	95	75	99.21875	100	100	100	96.875	373.5	428.5	408.5	515	432.5	538.474	0	0	0	0	0	25	25	25	25	100	33	US	Male	16	Black or African American	No	No	NA	NA
5dee933631a7e05381da6b02	428354	4	main	z	9	circle	global	RVF	yes	present	1	348	slash	93.75	95	75	99.21875	100	100	100	96.875	373.5	428.5	408.5	515	432.5	538.474	0	0	0	0	0	25	25	25	25	100	33	US	Male	16	Black or African American	No	No	NA	NA
5dee933631a7e05381da6b02	429754	4	main	z	10	circle	local	RVF	yes	present	1	446	slash	93.75	95	75	99.21875	100	100	100	96.875	373.5	428.5	408.5	515	432.5	538.474	0	0	0	0	0	25	25	25	25	100	33	US	Male	16	Black or African American	No	No	NA	NA
5dee933631a7e05381da6b02	432692	4	main	z	11	absent	absent	absent	no	absent	1	2000	slash	93.75	95	75	99.21875	100	100	100	96.875	373.5	428.5	408.5	515	432.5	538.474	0	0	0	0	0	25	25	25	25	100	33	US	Male	16	Black or African American	No	No	NA	NA
5dee933631a7e05381da6b02	434018	4	main	z	12	circle	local	LVF	yes	present	1	391	slash	93.75	95	75	99.21875	100	100	100	96.875	373.5	428.5	408.5	515	432.5	538.474	0	0	0	0	0	25	25	25	25	100	33	US	Male	16	Black or African American	No	No	NA	NA
5dee933631a7e05381da6b02	436946	4	main	z	13	absent	absent	absent	no	absent	1	2000	slash	93.75	95	75	99.21875	100	100	100	96.875	373.5	428.5	408.5	515	432.5	538.474	0	0	0	0	0	25	25	25	25	100	33	US	Male	16	Black or African American	No	No	NA	NA
5dee933631a7e05381da6b02	438186	4	main	z	14	circle	global	LVF	yes	present	1	303	slash	93.75	95	75	99.21875	100	100	100	96.875	373.5	428.5	408.5	515	432.5	538.474	0	0	0	0	0	25	25	25	25	100	33	US	Male	16	Black or African American	No	No	NA	NA
5dee933631a7e05381da6b02	441134	4	main	z	15	absent	absent	absent	no	absent	1	2000	slash	93.75	95	75	99.21875	100	100	100	96.875	373.5	428.5	408.5	515	432.5	538.474	0	0	0	0	0	25	25	25	25	100	33	US	Male	16	Black or African American	No	No	NA	NA
5dee933631a7e05381da6b02	442330	4	main	z	16	circle	global	LVF	yes	present	1	310	slash	93.75	95	75	99.21875	100	100	100	96.875	373.5	428.5	408.5	515	432.5	538.474	0	0	0	0	0	25	25	25	25	100	33	US	Male	16	Black or African American	No	No	NA	NA
5dee933631a7e05381da6b02	445321	4	main	z	17	square	local	RVF	yes	absent	0	2000	slash	93.75	95	75	99.21875	100	100	100	96.875	373.5	428.5	408.5	515	432.5	538.474	0	0	0	0	0	25	25	25	25	100	33	US	Male	16	Black or African American	No	No	NA	NA
5dee933631a7e05381da6b02	446698	4	main	z	18	circle	global	RVF	yes	present	1	341	slash	93.75	95	75	99.21875	100	100	100	96.875	373.5	428.5	408.5	515	432.5	538.474	0	0	0	0	0	25	25	25	25	100	33	US	Male	16	Black or African American	No	No	NA	NA
5dee933631a7e05381da6b02	448058	4	main	z	19	square	global	RVF	yes	present	1	365	slash	93.75	95	75	99.21875	100	100	100	96.875	373.5	428.5	408.5	515	432.5	538.474	0	0	0	0	0	25	25	25	25	100	33	US	Male	16	Black or African American	No	No	NA	NA
5dee933631a7e05381da6b02	451094	4	main	z	20	absent	absent	absent	no	absent	1	2000	slash	93.75	95	75	99.21875	100	100	100	96.875	373.5	428.5	408.5	515	432.5	538.474	0	0	0	0	0	25	25	25	25	100	33	US	Male	16	Black or African American	No	No	NA	NA
5dee933631a7e05381da6b02	452266	4	main	z	21	absent	absent	absent	no	present	0	252	slash	93.75	95	75	99.21875	100	100	100	96.875	373.5	428.5	408.5	515	432.5	538.474	0	0	0	0	0	25	25	25	25	100	33	US	Male	16	Black or African American	No	No	NA	NA
5dee933631a7e05381da6b02	453722	4	main	z	22	square	global	LVF	yes	present	1	357	slash	93.75	95	75	99.21875	100	100	100	96.875	373.5	428.5	408.5	515	432.5	538.474	0	0	0	0	0	25	25	25	25	100	33	US	Male	16	Black or African American	No	No	NA	NA
5dee933631a7e05381da6b02	454978	4	main	z	23	square	local	LVF	yes	present	1	312	slash	93.75	95	75	99.21875	100	100	100	96.875	373.5	428.5	408.5	515	432.5	538.474	0	0	0	0	0	25	25	25	25	100	33	US	Male	16	Black or African American	No	No	NA	NA
5dee933631a7e05381da6b02	456290	4	main	z	24	square	local	LVF	yes	present	1	356	slash	93.75	95	75	99.21875	100	100	100	96.875	373.5	428.5	408.5	515	432.5	538.474	0	0	0	0	0	25	25	25	25	100	33	US	Male	16	Black or African American	No	No	NA	NA
5dee933631a7e05381da6b02	459202	4	main	z	25	absent	absent	absent	no	absent	1	2000	slash	93.75	95	75	99.21875	100	100	100	96.875	373.5	428.5	408.5	515	432.5	538.474	0	0	0	0	0	25	25	25	25	100	33	US	Male	16	Black or African American	No	No	NA	NA
5dee933631a7e05381da6b02	460418	4	main	z	26	square	local	LVF	yes	present	1	263	slash	93.75	95	75	99.21875	100	100	100	96.875	373.5	428.5	408.5	515	432.5	538.474	0	0	0	0	0	25	25	25	25	100	33	US	Male	16	Black or African American	No	No	NA	NA
5dee933631a7e05381da6b02	461930	4	main	z	27	circle	local	RVF	yes	present	1	440	slash	93.75	95	75	99.21875	100	100	100	96.875	373.5	428.5	408.5	515	432.5	538.474	0	0	0	0	0	25	25	25	25	100	33	US	Male	16	Black or African American	No	No	NA	NA
5dee933631a7e05381da6b02	463206	4	main	z	28	circle	local	LVF	yes	present	1	371	slash	93.75	95	75	99.21875	100	100	100	96.875	373.5	428.5	408.5	515	432.5	538.474	0	0	0	0	0	25	25	25	25	100	33	US	Male	16	Black or African American	No	No	NA	NA
5dee933631a7e05381da6b02	464418	4	main	z	29	square	global	RVF	yes	present	1	326	slash	93.75	95	75	99.21875	100	100	100	96.875	373.5	428.5	408.5	515	432.5	538.474	0	0	0	0	0	25	25	25	25	100	33	US	Male	16	Black or African American	No	No	NA	NA
5dee933631a7e05381da6b02	465610	4	main	z	30	circle	global	RVF	yes	present	1	283	slash	93.75	95	75	99.21875	100	100	100	96.875	373.5	428.5	408.5	515	432.5	538.474	0	0	0	0	0	25	25	25	25	100	33	US	Male	16	Black or African American	No	No	NA	NA
5dee933631a7e05381da6b02	466770	4	main	z	31	circle	global	LVF	yes	present	1	242	slash	93.75	95	75	99.21875	100	100	100	96.875	373.5	428.5	408.5	515	432.5	538.474	0	0	0	0	0	25	25	25	25	100	33	US	Male	16	Black or African American	No	No	NA	NA
5dee933631a7e05381da6b02	468034	4	main	z	32	square	local	RVF	yes	present	1	322	slash	93.75	95	75	99.21875	100	100	100	96.875	373.5	428.5	408.5	515	432.5	538.474	0	0	0	0	0	25	25	25	25	100	33	US	Male	16	Black or African American	No	No	NA	NA
5dee933631a7e05381da6b02	469322	4	main	z	33	circle	global	LVF	yes	present	1	392	slash	93.75	95	75	99.21875	100	100	100	96.875	373.5	428.5	408.5	515	432.5	538.474	0	0	0	0	0	25	25	25	25	100	33	US	Male	16	Black or African American	No	No	NA	NA
5dee933631a7e05381da6b02	470458	4	main	z	34	absent	absent	absent	no	present	0	243	slash	93.75	95	75	99.21875	100	100	100	96.875	373.5	428.5	408.5	515	432.5	538.474	0	0	0	0	0	25	25	25	25	100	33	US	Male	16	Black or African American	No	No	NA	NA
5dee933631a7e05381da6b02	471998	4	main	z	35	square	global	LVF	yes	present	1	371	slash	93.75	95	75	99.21875	100	100	100	96.875	373.5	428.5	408.5	515	432.5	538.474	0	0	0	0	0	25	25	25	25	100	33	US	Male	16	Black or African American	No	No	NA	NA
5dee933631a7e05381da6b02	473098	4	main	z	36	square	global	RVF	yes	present	1	230	slash	93.75	95	75	99.21875	100	100	100	96.875	373.5	428.5	408.5	515	432.5	538.474	0	0	0	0	0	25	25	25	25	100	33	US	Male	16	Black or African American	No	No	NA	NA
5dee933631a7e05381da6b02	474466	4	main	z	37	circle	local	RVF	yes	present	1	447	slash	93.75	95	75	99.21875	100	100	100	96.875	373.5	428.5	408.5	515	432.5	538.474	0	0	0	0	0	25	25	25	25	100	33	US	Male	16	Black or African American	No	No	NA	NA
5dee933631a7e05381da6b02	475682	4	main	z	38	circle	local	LVF	yes	present	1	295	slash	93.75	95	75	99.21875	100	100	100	96.875	373.5	428.5	408.5	515	432.5	538.474	0	0	0	0	0	25	25	25	25	100	33	US	Male	16	Black or African American	No	No	NA	NA
5dee933631a7e05381da6b02	476858	4	main	z	39	square	global	LVF	yes	present	1	303	slash	93.75	95	75	99.21875	100	100	100	96.875	373.5	428.5	408.5	515	432.5	538.474	0	0	0	0	0	25	25	25	25	100	33	US	Male	16	Black or African American	No	No	NA	NA
5dee933631a7e05381da6b02	477978	4	main	z	40	square	global	LVF	yes	present	1	222	slash	93.75	95	75	99.21875	100	100	100	96.875	373.5	428.5	408.5	515	432.5	538.474	0	0	0	0	0	25	25	25	25	100	33	US	Male	16	Black or African American	No	No	NA	NA
5dee933631a7e05381da6b02	479162	4	main	z	41	square	local	RVF	yes	present	1	255	slash	93.75	95	75	99.21875	100	100	100	96.875	373.5	428.5	408.5	515	432.5	538.474	0	0	0	0	0	25	25	25	25	100	33	US	Male	16	Black or African American	No	No	NA	NA
5dee933631a7e05381da6b02	480330	4	main	z	42	square	local	LVF	yes	present	1	255	slash	93.75	95	75	99.21875	100	100	100	96.875	373.5	428.5	408.5	515	432.5	538.474	0	0	0	0	0	25	25	25	25	100	33	US	Male	16	Black or African American	No	No	NA	NA
5dee933631a7e05381da6b02	481490	4	main	z	43	square	local	LVF	yes	present	1	264	slash	93.75	95	75	99.21875	100	100	100	96.875	373.5	428.5	408.5	515	432.5	538.474	0	0	0	0	0	25	25	25	25	100	33	US	Male	16	Black or African American	No	No	NA	NA
5dee933631a7e05381da6b02	482698	4	main	z	44	square	local	LVF	yes	present	1	305	slash	93.75	95	75	99.21875	100	100	100	96.875	373.5	428.5	408.5	515	432.5	538.474	0	0	0	0	0	25	25	25	25	100	33	US	Male	16	Black or African American	No	No	NA	NA
5dee933631a7e05381da6b02	483914	4	main	z	45	circle	local	RVF	yes	present	1	319	slash	93.75	95	75	99.21875	100	100	100	96.875	373.5	428.5	408.5	515	432.5	538.474	0	0	0	0	0	25	25	25	25	100	33	US	Male	16	Black or African American	No	No	NA	NA
5dee933631a7e05381da6b02	485123	4	main	z	46	square	local	RVF	yes	present	1	293	slash	93.75	95	75	99.21875	100	100	100	96.875	373.5	428.5	408.5	515	432.5	538.474	0	0	0	0	0	25	25	25	25	100	33	US	Male	16	Black or African American	No	No	NA	NA
5dee933631a7e05381da6b02	488031	4	main	z	47	absent	absent	absent	no	absent	1	2000	slash	93.75	95	75	99.21875	100	100	100	96.875	373.5	428.5	408.5	515	432.5	538.474	0	0	0	0	0	25	25	25	25	100	33	US	Male	16	Black or African American	No	No	NA	NA
5dee933631a7e05381da6b02	489338	4	main	z	48	circle	local	RVF	yes	present	1	337	slash	93.75	95	75	99.21875	100	100	100	96.875	373.5	428.5	408.5	515	432.5	538.474	0	0	0	0	0	25	25	25	25	100	33	US	Male	16	Black or African American	No	No	NA	NA
5dee933631a7e05381da6b02	490482	4	main	z	49	square	global	RVF	yes	present	1	231	slash	93.75	95	75	99.21875	100	100	100	96.875	373.5	428.5	408.5	515	432.5	538.474	0	0	0	0	0	25	25	25	25	100	33	US	Male	16	Black or African American	No	No	NA	NA
5dee933631a7e05381da6b02	491658	4	main	z	50	square	global	RVF	yes	present	1	239	slash	93.75	95	75	99.21875	100	100	100	96.875	373.5	428.5	408.5	515	432.5	538.474	0	0	0	0	0	25	25	25	25	100	33	US	Male	16	Black or African American	No	No	NA	NA
5dee933631a7e05381da6b02	492818	4	main	z	51	circle	local	RVF	yes	present	1	247	slash	93.75	95	75	99.21875	100	100	100	96.875	373.5	428.5	408.5	515	432.5	538.474	0	0	0	0	0	25	25	25	25	100	33	US	Male	16	Black or African American	No	No	NA	NA
5dee933631a7e05381da6b02	495721	4	main	z	52	absent	absent	absent	no	absent	1	2000	slash	93.75	95	75	99.21875	100	100	100	96.875	373.5	428.5	408.5	515	432.5	538.474	0	0	0	0	0	25	25	25	25	100	33	US	Male	16	Black or African American	No	No	NA	NA
5dee933631a7e05381da6b02	497042	4	main	z	53	square	local	RVF	yes	present	1	334	slash	93.75	95	75	99.21875	100	100	100	96.875	373.5	428.5	408.5	515	432.5	538.474	0	0	0	0	0	25	25	25	25	100	33	US	Male	16	Black or African American	No	No	NA	NA
5dee933631a7e05381da6b02	499926	4	main	z	54	absent	absent	absent	no	absent	1	2000	slash	93.75	95	75	99.21875	100	100	100	96.875	373.5	428.5	408.5	515	432.5	538.474	0	0	0	0	0	25	25	25	25	100	33	US	Male	16	Black or African American	No	No	NA	NA
5dee933631a7e05381da6b02	503029	4	main	z	55	absent	absent	absent	no	absent	1	2000	slash	93.75	95	75	99.21875	100	100	100	96.875	373.5	428.5	408.5	515	432.5	538.474	0	0	0	0	0	25	25	25	25	100	33	US	Male	16	Black or African American	No	No	NA	NA
5dee933631a7e05381da6b02	505782	4	main	z	56	absent	absent	absent	no	absent	1	2000	slash	93.75	95	75	99.21875	100	100	100	96.875	373.5	428.5	408.5	515	432.5	538.474	0	0	0	0	0	25	25	25	25	100	33	US	Male	16	Black or African American	No	No	NA	NA
5dee933631a7e05381da6b02	508735	4	main	z	57	absent	absent	absent	no	absent	1	2000	slash	93.75	95	75	99.21875	100	100	100	96.875	373.5	428.5	408.5	515	432.5	538.474	0	0	0	0	0	25	25	25	25	100	33	US	Male	16	Black or African American	No	No	NA	NA
5dee933631a7e05381da6b02	511771	4	main	z	58	absent	absent	absent	no	absent	1	2000	slash	93.75	95	75	99.21875	100	100	100	96.875	373.5	428.5	408.5	515	432.5	538.474	0	0	0	0	0	25	25	25	25	100	33	US	Male	16	Black or African American	No	No	NA	NA
5dee933631a7e05381da6b02	513146	4	main	z	59	circle	global	LVF	yes	present	1	355	slash	93.75	95	75	99.21875	100	100	100	96.875	373.5	428.5	408.5	515	432.5	538.474	0	0	0	0	0	25	25	25	25	100	33	US	Male	16	Black or African American	No	No	NA	NA
5dee933631a7e05381da6b02	514418	4	main	z	60	circle	local	RVF	yes	present	1	342	slash	93.75	95	75	99.21875	100	100	100	96.875	373.5	428.5	408.5	515	432.5	538.474	0	0	0	0	0	25	25	25	25	100	33	US	Male	16	Black or African American	No	No	NA	NA
5dee933631a7e05381da6b02	515642	4	main	z	61	circle	global	RVF	yes	present	1	333	slash	93.75	95	75	99.21875	100	100	100	96.875	373.5	428.5	408.5	515	432.5	538.474	0	0	0	0	0	25	25	25	25	100	33	US	Male	16	Black or African American	No	No	NA	NA
5dee933631a7e05381da6b02	516874	4	main	z	62	square	global	LVF	yes	present	1	363	slash	93.75	95	75	99.21875	100	100	100	96.875	373.5	428.5	408.5	515	432.5	538.474	0	0	0	0	0	25	25	25	25	100	33	US	Male	16	Black or African American	No	No	NA	NA
5dee933631a7e05381da6b02	517978	4	main	z	63	square	local	LVF	yes	present	1	249	slash	93.75	95	75	99.21875	100	100	100	96.875	373.5	428.5	408.5	515	432.5	538.474	0	0	0	0	0	25	25	25	25	100	33	US	Male	16	Black or African American	No	No	NA	NA
5dee933631a7e05381da6b02	519122	4	main	z	64	square	global	LVF	yes	present	1	226	slash	93.75	95	75	99.21875	100	100	100	96.875	373.5	428.5	408.5	515	432.5	538.474	0	0	0	0	0	25	25	25	25	100	33	US	Male	16	Black or African American	No	No	NA	NA
5dee933631a7e05381da6b02	520430	4	main	z	65	circle	local	LVF	yes	present	1	370	slash	93.75	95	75	99.21875	100	100	100	96.875	373.5	428.5	408.5	515	432.5	538.474	0	0	0	0	0	25	25	25	25	100	33	US	Male	16	Black or African American	No	No	NA	NA
5dee933631a7e05381da6b02	521530	4	main	z	66	square	local	RVF	yes	present	1	247	slash	93.75	95	75	99.21875	100	100	100	96.875	373.5	428.5	408.5	515	432.5	538.474	0	0	0	0	0	25	25	25	25	100	33	US	Male	16	Black or African American	No	No	NA	NA
5dee933631a7e05381da6b02	522682	4	main	z	67	circle	global	LVF	yes	present	1	231	slash	93.75	95	75	99.21875	100	100	100	96.875	373.5	428.5	408.5	515	432.5	538.474	0	0	0	0	0	25	25	25	25	100	33	US	Male	16	Black or African American	No	No	NA	NA
5dee933631a7e05381da6b02	523770	4	main	z	68	square	global	RVF	yes	present	1	219	slash	93.75	95	75	99.21875	100	100	100	96.875	373.5	428.5	408.5	515	432.5	538.474	0	0	0	0	0	25	25	25	25	100	33	US	Male	16	Black or African American	No	No	NA	NA
5dee933631a7e05381da6b02	524954	4	main	z	69	square	global	RVF	yes	present	1	269	slash	93.75	95	75	99.21875	100	100	100	96.875	373.5	428.5	408.5	515	432.5	538.474	0	0	0	0	0	25	25	25	25	100	33	US	Male	16	Black or African American	No	No	NA	NA
5dee933631a7e05381da6b02	526082	4	main	z	70	circle	global	LVF	yes	present	1	245	slash	93.75	95	75	99.21875	100	100	100	96.875	373.5	428.5	408.5	515	432.5	538.474	0	0	0	0	0	25	25	25	25	100	33	US	Male	16	Black or African American	No	No	NA	NA
5dee933631a7e05381da6b02	527210	4	main	z	71	circle	local	LVF	yes	present	1	238	slash	93.75	95	75	99.21875	100	100	100	96.875	373.5	428.5	408.5	515	432.5	538.474	0	0	0	0	0	25	25	25	25	100	33	US	Male	16	Black or African American	No	No	NA	NA
5dee933631a7e05381da6b02	528354	4	main	z	72	circle	local	LVF	yes	present	1	248	slash	93.75	95	75	99.21875	100	100	100	96.875	373.5	428.5	408.5	515	432.5	538.474	0	0	0	0	0	25	25	25	25	100	33	US	Male	16	Black or African American	No	No	NA	NA
5dee933631a7e05381da6b02	529466	4	main	z	73	square	global	LVF	yes	present	1	243	slash	93.75	95	75	99.21875	100	100	100	96.875	373.5	428.5	408.5	515	432.5	538.474	0	0	0	0	0	25	25	25	25	100	33	US	Male	16	Black or African American	No	No	NA	NA
5dee933631a7e05381da6b02	530570	4	main	z	74	circle	global	RVF	yes	present	1	212	slash	93.75	95	75	99.21875	100	100	100	96.875	373.5	428.5	408.5	515	432.5	538.474	0	0	0	0	0	25	25	25	25	100	33	US	Male	16	Black or African American	No	No	NA	NA
5dee933631a7e05381da6b02	531658	4	main	z	75	circle	global	LVF	yes	present	1	198	slash	93.75	95	75	99.21875	100	100	100	96.875	373.5	428.5	408.5	515	432.5	538.474	0	0	0	0	0	25	25	25	25	100	33	US	Male	16	Black or African American	No	No	NA	NA
5dee933631a7e05381da6b02	532778	4	main	z	76	circle	global	RVF	yes	present	1	234	slash	93.75	95	75	99.21875	100	100	100	96.875	373.5	428.5	408.5	515	432.5	538.474	0	0	0	0	0	25	25	25	25	100	33	US	Male	16	Black or African American	No	No	NA	NA
5dee933631a7e05381da6b02	533882	4	main	z	77	absent	absent	absent	no	present	0	203	slash	93.75	95	75	99.21875	100	100	100	96.875	373.5	428.5	408.5	515	432.5	538.474	0	0	0	0	0	25	25	25	25	100	33	US	Male	16	Black or African American	No	No	NA	NA
5dee933631a7e05381da6b02	536196	4	main	z	78	circle	global	RVF	yes	present	1	373	slash	93.75	95	75	99.21875	100	100	100	96.875	373.5	428.5	408.5	515	432.5	538.474	0	0	0	0	0	25	25	25	25	100	33	US	Male	16	Black or African American	No	No	NA	NA
5dee933631a7e05381da6b02	537306	4	main	z	79	circle	local	LVF	yes	present	1	257	slash	93.75	95	75	99.21875	100	100	100	96.875	373.5	428.5	408.5	515	432.5	538.474	0	0	0	0	0	25	25	25	25	100	33	US	Male	16	Black or African American	No	No	NA	NA
5dee933631a7e05381da6b02	538474	4	main	z	80	square	global	LVF	yes	present	1	274	slash	93.75	95	75	99.21875	100	100	100	96.875	373.5	428.5	408.5	515	432.5	538.474	0	0	0	0	0	25	25	25	25	100	33	US	Male	16	Black or African American	No	No	NA	NA
5e5731e3e1e8b90e25c1f3a2	334694	1	practice	z	1	absent	absent	absent	no	absent	1	2000	z	78.75	75	53.125	82.8125	84.375	87.5	78.125	81.25	897.5	848.5	941	881.5	895	1090.365	0	0	0	0	0	12.5	12.5	12.5	12.5	50	40	US	Male	16	White	No	No	NA	NA
5e5731e3e1e8b90e25c1f3a2	341687	1	practice	z	2	absent	absent	absent	no	absent	1	2000	z	78.75	75	53.125	82.8125	84.375	87.5	78.125	81.25	897.5	848.5	941	881.5	895	1090.365	0	0	0	0	0	12.5	12.5	12.5	12.5	50	40	US	Male	16	White	No	No	NA	NA
5e5731e3e1e8b90e25c1f3a2	345122	1	practice	z	3	circle	global	RVF	yes	present	1	684	z	78.75	75	53.125	82.8125	84.375	87.5	78.125	81.25	897.5	848.5	941	881.5	895	1090.365	0	0	0	0	0	12.5	12.5	12.5	12.5	50	40	US	Male	16	White	No	No	NA	NA
5e5731e3e1e8b90e25c1f3a2	348141	1	practice	z	4	circle	local	RVF	yes	present	1	821	z	78.75	75	53.125	82.8125	84.375	87.5	78.125	81.25	897.5	848.5	941	881.5	895	1090.365	0	0	0	0	0	12.5	12.5	12.5	12.5	50	40	US	Male	16	White	No	No	NA	NA
5e5731e3e1e8b90e25c1f3a2	351948	1	practice	z	5	absent	absent	absent	no	present	0	1229	z	78.75	75	53.125	82.8125	84.375	87.5	78.125	81.25	897.5	848.5	941	881.5	895	1090.365	0	0	0	0	0	12.5	12.5	12.5	12.5	50	40	US	Male	16	White	No	No	NA	NA
5e5731e3e1e8b90e25c1f3a2	355849	1	practice	z	6	circle	local	RVF	yes	present	1	1813	z	78.75	75	53.125	82.8125	84.375	87.5	78.125	81.25	897.5	848.5	941	881.5	895	1090.365	0	0	0	0	0	12.5	12.5	12.5	12.5	50	40	US	Male	16	White	No	No	NA	NA
5e5731e3e1e8b90e25c1f3a2	361325	1	practice	z	7	circle	global	RVF	yes	present	1	1639	z	78.75	75	53.125	82.8125	84.375	87.5	78.125	81.25	897.5	848.5	941	881.5	895	1090.365	0	0	0	0	0	12.5	12.5	12.5	12.5	50	40	US	Male	16	White	No	No	NA	NA
5e5731e3e1e8b90e25c1f3a2	365353	1	practice	z	8	square	local	LVF	yes	absent	0	2000	z	78.75	75	53.125	82.8125	84.375	87.5	78.125	81.25	897.5	848.5	941	881.5	895	1090.365	0	0	0	0	0	12.5	12.5	12.5	12.5	50	40	US	Male	16	White	No	No	NA	NA
5e5731e3e1e8b90e25c1f3a2	368811	1	practice	z	9	circle	global	LVF	yes	present	1	1375	z	78.75	75	53.125	82.8125	84.375	87.5	78.125	81.25	897.5	848.5	941	881.5	895	1090.365	0	0	0	0	0	12.5	12.5	12.5	12.5	50	40	US	Male	16	White	No	No	NA	NA
5e5731e3e1e8b90e25c1f3a2	372020	1	practice	z	10	square	global	LVF	yes	present	1	1000	z	78.75	75	53.125	82.8125	84.375	87.5	78.125	81.25	897.5	848.5	941	881.5	895	1090.365	0	0	0	0	0	12.5	12.5	12.5	12.5	50	40	US	Male	16	White	No	No	NA	NA
5e5731e3e1e8b90e25c1f3a2	374811	1	practice	z	11	circle	local	RVF	yes	present	1	858	z	78.75	75	53.125	82.8125	84.375	87.5	78.125	81.25	897.5	848.5	941	881.5	895	1090.365	0	0	0	0	0	12.5	12.5	12.5	12.5	50	40	US	Male	16	White	No	No	NA	NA
5e5731e3e1e8b90e25c1f3a2	378702	1	practice	z	12	square	global	RVF	yes	absent	0	2000	z	78.75	75	53.125	82.8125	84.375	87.5	78.125	81.25	897.5	848.5	941	881.5	895	1090.365	0	0	0	0	0	12.5	12.5	12.5	12.5	50	40	US	Male	16	White	No	No	NA	NA
5e5731e3e1e8b90e25c1f3a2	381887	1	practice	z	13	absent	absent	absent	no	present	0	1051	z	78.75	75	53.125	82.8125	84.375	87.5	78.125	81.25	897.5	848.5	941	881.5	895	1090.365	0	0	0	0	0	12.5	12.5	12.5	12.5	50	40	US	Male	16	White	No	No	NA	NA
5e5731e3e1e8b90e25c1f3a2	385212	1	practice	z	14	square	global	LVF	yes	present	1	843	z	78.75	75	53.125	82.8125	84.375	87.5	78.125	81.25	897.5	848.5	941	881.5	895	1090.365	0	0	0	0	0	12.5	12.5	12.5	12.5	50	40	US	Male	16	White	No	No	NA	NA
5e5731e3e1e8b90e25c1f3a2	389519	1	practice	z	15	square	local	LVF	yes	absent	0	2000	z	78.75	75	53.125	82.8125	84.375	87.5	78.125	81.25	897.5	848.5	941	881.5	895	1090.365	0	0	0	0	0	12.5	12.5	12.5	12.5	50	40	US	Male	16	White	No	No	NA	NA
5e5731e3e1e8b90e25c1f3a2	392499	1	practice	z	16	circle	global	LVF	yes	present	1	913	z	78.75	75	53.125	82.8125	84.375	87.5	78.125	81.25	897.5	848.5	941	881.5	895	1090.365	0	0	0	0	0	12.5	12.5	12.5	12.5	50	40	US	Male	16	White	No	No	NA	NA
5e5731e3e1e8b90e25c1f3a2	409013	2	main	z	1	square	local	LVF	yes	present	1	1113	z	78.75	75	53.125	82.8125	84.375	87.5	78.125	81.25	897.5	848.5	941	881.5	895	1090.365	0	0	0	0	0	12.5	12.5	12.5	12.5	50	40	US	Male	16	White	No	No	NA	NA
5e5731e3e1e8b90e25c1f3a2	411390	2	main	z	2	square	global	LVF	yes	present	1	1047	z	78.75	75	53.125	82.8125	84.375	87.5	78.125	81.25	897.5	848.5	941	881.5	895	1090.365	0	0	0	0	0	12.5	12.5	12.5	12.5	50	40	US	Male	16	White	No	No	NA	NA
5e5731e3e1e8b90e25c1f3a2	414473	2	main	z	3	circle	global	LVF	yes	present	1	1289	z	78.75	75	53.125	82.8125	84.375	87.5	78.125	81.25	897.5	848.5	941	881.5	895	1090.365	0	0	0	0	0	12.5	12.5	12.5	12.5	50	40	US	Male	16	White	No	No	NA	NA
5e5731e3e1e8b90e25c1f3a2	416787	2	main	z	4	circle	global	LVF	yes	present	1	790	z	78.75	75	53.125	82.8125	84.375	87.5	78.125	81.25	897.5	848.5	941	881.5	895	1090.365	0	0	0	0	0	12.5	12.5	12.5	12.5	50	40	US	Male	16	White	No	No	NA	NA
5e5731e3e1e8b90e25c1f3a2	419900	2	main	z	5	absent	absent	absent	no	absent	1	2000	z	78.75	75	53.125	82.8125	84.375	87.5	78.125	81.25	897.5	848.5	941	881.5	895	1090.365	0	0	0	0	0	12.5	12.5	12.5	12.5	50	40	US	Male	16	White	No	No	NA	NA
5e5731e3e1e8b90e25c1f3a2	421850	2	main	z	6	square	global	LVF	yes	present	1	817	z	78.75	75	53.125	82.8125	84.375	87.5	78.125	81.25	897.5	848.5	941	881.5	895	1090.365	0	0	0	0	0	12.5	12.5	12.5	12.5	50	40	US	Male	16	White	No	No	NA	NA
5e5731e3e1e8b90e25c1f3a2	424901	2	main	z	7	square	global	RVF	yes	absent	0	2000	z	78.75	75	53.125	82.8125	84.375	87.5	78.125	81.25	897.5	848.5	941	881.5	895	1090.365	0	0	0	0	0	12.5	12.5	12.5	12.5	50	40	US	Male	16	White	No	No	NA	NA
5e5731e3e1e8b90e25c1f3a2	426914	2	main	z	8	square	global	RVF	yes	present	1	1097	z	78.75	75	53.125	82.8125	84.375	87.5	78.125	81.25	897.5	848.5	941	881.5	895	1090.365	0	0	0	0	0	12.5	12.5	12.5	12.5	50	40	US	Male	16	White	No	No	NA	NA
5e5731e3e1e8b90e25c1f3a2	428979	2	main	z	9	square	local	RVF	yes	present	1	1046	z	78.75	75	53.125	82.8125	84.375	87.5	78.125	81.25	897.5	848.5	941	881.5	895	1090.365	0	0	0	0	0	12.5	12.5	12.5	12.5	50	40	US	Male	16	White	No	No	NA	NA
5e5731e3e1e8b90e25c1f3a2	430911	2	main	z	10	circle	local	LVF	yes	present	1	911	z	78.75	75	53.125	82.8125	84.375	87.5	78.125	81.25	897.5	848.5	941	881.5	895	1090.365	0	0	0	0	0	12.5	12.5	12.5	12.5	50	40	US	Male	16	White	No	No	NA	NA
