subject	time_elapsed_ms	blocknum	block_type	block_response	trialnum	target	level	field	target_present	response	correct	rt	ehi_i1_writing	ehi_i2_throwing	ehi_i3_toothbrush	ehi_i4_spoon	ehi_total	age	country	sex	education	race	hispanic_ethnicity	task_experience_response	task_experience_other_response	open_ended_feedback_response
59a07638bfd73c00010ea394	96657	1	practice	z	1	absent	absent	absent	no	absent	1	2000	25	12.5	25	12.5	75	23	US	Male	12	Black or African American	No	No	NA	NA
59a07638bfd73c00010ea394	101288	1	practice	z	2	absent	absent	absent	no	absent	1	2000	25	12.5	25	12.5	75	23	US	Male	12	Black or African American	No	No	NA	NA
59a07638bfd73c00010ea394	104746	1	practice	z	3	circle	global	LVF	yes	present	1	1122	25	12.5	25	12.5	75	23	US	Male	12	Black or African American	No	No	NA	NA
59a07638bfd73c00010ea394	108554	1	practice	z	4	square	local	LVF	yes	present	1	1263	25	12.5	25	12.5	75	23	US	Male	12	Black or African American	No	No	NA	NA
59a07638bfd73c00010ea394	111801	1	practice	z	5	circle	global	RVF	yes	present	1	1174	25	12.5	25	12.5	75	23	US	Male	12	Black or African American	No	No	NA	NA
59a07638bfd73c00010ea394	115012	1	practice	z	6	square	global	LVF	yes	present	1	909	25	12.5	25	12.5	75	23	US	Male	12	Black or African American	No	No	NA	NA
59a07638bfd73c00010ea394	119028	1	practice	z	7	square	global	LVF	yes	absent	0	2000	25	12.5	25	12.5	75	23	US	Male	12	Black or African American	No	No	NA	NA
59a07638bfd73c00010ea394	122385	1	practice	z	8	square	local	LVF	yes	present	1	1174	25	12.5	25	12.5	75	23	US	Male	12	Black or African American	No	No	NA	NA
59a07638bfd73c00010ea394	125595	1	practice	z	9	absent	absent	absent	no	present	0	1214	25	12.5	25	12.5	75	23	US	Male	12	Black or African American	No	No	NA	NA
59a07638bfd73c00010ea394	128641	1	practice	z	10	circle	local	RVF	yes	present	1	950	25	12.5	25	12.5	75	23	US	Male	12	Black or African American	No	No	NA	NA
59a07638bfd73c00010ea394	131987	1	practice	z	11	circle	global	LVF	yes	present	1	1216	25	12.5	25	12.5	75	23	US	Male	12	Black or African American	No	No	NA	NA
59a07638bfd73c00010ea394	135369	1	practice	z	12	circle	local	RVF	yes	present	1	1141	25	12.5	25	12.5	75	23	US	Male	12	Black or African American	No	No	NA	NA
59a07638bfd73c00010ea394	138409	1	practice	z	13	square	global	RVF	yes	present	1	998	25	12.5	25	12.5	75	23	US	Male	12	Black or African American	No	No	NA	NA
59a07638bfd73c00010ea394	141449	1	practice	z	14	circle	global	RVF	yes	present	1	1045	25	12.5	25	12.5	75	23	US	Male	12	Black or African American	No	No	NA	NA
59a07638bfd73c00010ea394	145260	1	practice	z	15	absent	absent	absent	no	absent	1	2000	25	12.5	25	12.5	75	23	US	Male	12	Black or African American	No	No	NA	NA
59a07638bfd73c00010ea394	148115	1	practice	z	16	circle	local	RVF	yes	present	1	790	25	12.5	25	12.5	75	23	US	Male	12	Black or African American	No	No	NA	NA
59a07638bfd73c00010ea394	151809	2	main	z	1	square	local	RVF	yes	present	1	904	25	12.5	25	12.5	75	23	US	Male	12	Black or African American	No	No	NA	NA
59a07638bfd73c00010ea394	154081	2	main	z	2	square	local	RVF	yes	present	1	765	25	12.5	25	12.5	75	23	US	Male	12	Black or African American	No	No	NA	NA
59a07638bfd73c00010ea394	156313	2	main	z	3	circle	local	LVF	yes	present	1	933	25	12.5	25	12.5	75	23	US	Male	12	Black or African American	No	No	NA	NA
59a07638bfd73c00010ea394	159516	2	main	z	4	absent	absent	absent	no	absent	1	2000	25	12.5	25	12.5	75	23	US	Male	12	Black or African American	No	No	NA	NA
59a07638bfd73c00010ea394	162469	2	main	z	5	absent	absent	absent	no	absent	1	2000	25	12.5	25	12.5	75	23	US	Male	12	Black or African American	No	No	NA	NA
59a07638bfd73c00010ea394	165476	2	main	z	6	square	global	LVF	yes	absent	0	2000	25	12.5	25	12.5	75	23	US	Male	12	Black or African American	No	No	NA	NA
59a07638bfd73c00010ea394	167329	2	main	z	7	square	local	RVF	yes	present	1	829	25	12.5	25	12.5	75	23	US	Male	12	Black or African American	No	No	NA	NA
59a07638bfd73c00010ea394	169561	2	main	z	8	square	local	LVF	yes	present	1	821	25	12.5	25	12.5	75	23	US	Male	12	Black or African American	No	No	NA	NA
59a07638bfd73c00010ea394	172379	2	main	z	9	square	local	RVF	yes	present	1	1596	25	12.5	25	12.5	75	23	US	Male	12	Black or African American	No	No	NA	NA
59a07638bfd73c00010ea394	174603	2	main	z	10	circle	global	RVF	yes	present	1	1039	25	12.5	25	12.5	75	23	US	Male	12	Black or African American	No	No	NA	NA
59a07638bfd73c00010ea394	176737	2	main	z	11	circle	global	RVF	yes	present	1	948	25	12.5	25	12.5	75	23	US	Male	12	Black or African American	No	No	NA	NA
59a07638bfd73c00010ea394	179041	2	main	z	12	circle	local	RVF	yes	present	1	1117	25	12.5	25	12.5	75	23	US	Male	12	Black or African American	No	No	NA	NA
59a07638bfd73c00010ea394	181105	2	main	z	13	square	global	RVF	yes	present	1	877	25	12.5	25	12.5	75	23	US	Male	12	Black or African American	No	No	NA	NA
59a07638bfd73c00010ea394	183265	2	main	z	14	circle	local	RVF	yes	present	1	894	25	12.5	25	12.5	75	23	US	Male	12	Black or African American	No	No	NA	NA
59a07638bfd73c00010ea394	186412	2	main	z	15	absent	absent	absent	no	absent	1	2000	25	12.5	25	12.5	75	23	US	Male	12	Black or African American	No	No	NA	NA
59a07638bfd73c00010ea394	188457	2	main	z	16	square	global	RVF	yes	present	1	941	25	12.5	25	12.5	75	23	US	Male	12	Black or African American	No	No	NA	NA
59a07638bfd73c00010ea394	190898	2	main	z	17	square	global	LVF	yes	present	1	797	25	12.5	25	12.5	75	23	US	Male	12	Black or African American	No	No	NA	NA
59a07638bfd73c00010ea394	192769	2	main	z	18	circle	global	LVF	yes	present	1	763	25	12.5	25	12.5	75	23	US	Male	12	Black or African American	No	No	NA	NA
59a07638bfd73c00010ea394	194425	2	main	z	19	circle	global	RVF	yes	present	1	723	25	12.5	25	12.5	75	23	US	Male	12	Black or African American	No	No	NA	NA
59a07638bfd73c00010ea394	196089	2	main	z	20	square	local	LVF	yes	present	1	837	25	12.5	25	12.5	75	23	US	Male	12	Black or African American	No	No	NA	NA
59a07638bfd73c00010ea394	197595	2	main	z	21	circle	local	LVF	yes	present	1	702	25	12.5	25	12.5	75	23	US	Male	12	Black or African American	No	No	NA	NA
59a07638bfd73c00010ea394	200364	2	main	z	22	absent	absent	absent	no	absent	1	2000	25	12.5	25	12.5	75	23	US	Male	12	Black or African American	No	No	NA	NA
59a07638bfd73c00010ea394	202353	2	main	z	23	circle	global	RVF	yes	present	1	796	25	12.5	25	12.5	75	23	US	Male	12	Black or African American	No	No	NA	NA
59a07638bfd73c00010ea394	203977	2	main	z	24	circle	local	LVF	yes	present	1	821	25	12.5	25	12.5	75	23	US	Male	12	Black or African American	No	No	NA	NA
59a07638bfd73c00010ea394	206725	2	main	z	25	absent	absent	absent	no	absent	1	2000	25	12.5	25	12.5	75	23	US	Male	12	Black or African American	No	No	NA	NA
59a07638bfd73c00010ea394	208529	2	main	z	26	square	global	RVF	yes	present	1	797	25	12.5	25	12.5	75	23	US	Male	12	Black or African American	No	No	NA	NA
59a07638bfd73c00010ea394	211356	2	main	z	27	absent	absent	absent	no	absent	1	2000	25	12.5	25	12.5	75	23	US	Male	12	Black or African American	No	No	NA	NA
59a07638bfd73c00010ea394	213131	2	main	z	28	circle	global	LVF	yes	present	1	791	25	12.5	25	12.5	75	23	US	Male	12	Black or African American	No	No	NA	NA
59a07638bfd73c00010ea394	215958	2	main	z	29	absent	absent	absent	no	absent	1	2000	25	12.5	25	12.5	75	23	US	Male	12	Black or African American	No	No	NA	NA
59a07638bfd73c00010ea394	218059	2	main	z	30	square	global	LVF	yes	present	1	903	25	12.5	25	12.5	75	23	US	Male	12	Black or African American	No	No	NA	NA
59a07638bfd73c00010ea394	219977	2	main	z	31	circle	local	RVF	yes	present	1	933	25	12.5	25	12.5	75	23	US	Male	12	Black or African American	No	No	NA	NA
59a07638bfd73c00010ea394	221569	2	main	z	32	circle	global	LVF	yes	present	1	802	25	12.5	25	12.5	75	23	US	Male	12	Black or African American	No	No	NA	NA
59a07638bfd73c00010ea394	223211	2	main	z	33	circle	local	RVF	yes	present	1	847	25	12.5	25	12.5	75	23	US	Male	12	Black or African American	No	No	NA	NA
59a07638bfd73c00010ea394	224819	2	main	z	34	square	local	LVF	yes	present	1	815	25	12.5	25	12.5	75	23	US	Male	12	Black or African American	No	No	NA	NA
59a07638bfd73c00010ea394	226553	2	main	z	35	square	local	LVF	yes	present	1	850	25	12.5	25	12.5	75	23	US	Male	12	Black or African American	No	No	NA	NA
59a07638bfd73c00010ea394	228193	2	main	z	36	circle	local	LVF	yes	present	1	853	25	12.5	25	12.5	75	23	US	Male	12	Black or African American	No	No	NA	NA
59a07638bfd73c00010ea394	230099	2	main	z	37	square	global	LVF	yes	present	1	1103	25	12.5	25	12.5	75	23	US	Male	12	Black or African American	No	No	NA	NA
59a07638bfd73c00010ea394	232932	2	main	z	38	absent	absent	absent	no	absent	1	2000	25	12.5	25	12.5	75	23	US	Male	12	Black or African American	No	No	NA	NA
59a07638bfd73c00010ea394	234769	2	main	z	39	square	global	RVF	yes	present	1	813	25	12.5	25	12.5	75	23	US	Male	12	Black or African American	No	No	NA	NA
59a07638bfd73c00010ea394	236361	2	main	z	40	circle	global	LVF	yes	present	1	782	25	12.5	25	12.5	75	23	US	Male	12	Black or African American	No	No	NA	NA
59a07638bfd73c00010ea394	237873	2	main	z	41	circle	global	RVF	yes	present	1	723	25	12.5	25	12.5	75	23	US	Male	12	Black or African American	No	No	NA	NA
59a07638bfd73c00010ea394	240668	2	main	z	42	absent	absent	absent	no	absent	1	2000	25	12.5	25	12.5	75	23	US	Male	12	Black or African American	No	No	NA	NA
59a07638bfd73c00010ea394	242370	2	main	z	43	square	global	RVF	yes	present	1	734	25	12.5	25	12.5	75	23	US	Male	12	Black or African American	No	No	NA	NA
59a07638bfd73c00010ea394	243921	2	main	z	44	circle	global	RVF	yes	present	1	758	25	12.5	25	12.5	75	23	US	Male	12	Black or African American	No	No	NA	NA
59a07638bfd73c00010ea394	245361	2	main	z	45	circle	global	RVF	yes	present	1	651	25	12.5	25	12.5	75	23	US	Male	12	Black or African American	No	No	NA	NA
59a07638bfd73c00010ea394	246849	2	main	z	46	square	local	RVF	yes	present	1	723	25	12.5	25	12.5	75	23	US	Male	12	Black or African American	No	No	NA	NA
59a07638bfd73c00010ea394	248321	2	main	z	47	circle	global	LVF	yes	present	1	685	25	12.5	25	12.5	75	23	US	Male	12	Black or African American	No	No	NA	NA
59a07638bfd73c00010ea394	249753	2	main	z	48	circle	local	RVF	yes	present	1	628	25	12.5	25	12.5	75	23	US	Male	12	Black or African American	No	No	NA	NA
59a07638bfd73c00010ea394	251289	2	main	z	49	circle	local	LVF	yes	present	1	637	25	12.5	25	12.5	75	23	US	Male	12	Black or African American	No	No	NA	NA
59a07638bfd73c00010ea394	252891	2	main	z	50	circle	global	RVF	yes	present	1	815	25	12.5	25	12.5	75	23	US	Male	12	Black or African American	No	No	NA	NA
59a07638bfd73c00010ea394	254545	2	main	z	51	square	local	RVF	yes	present	1	869	25	12.5	25	12.5	75	23	US	Male	12	Black or African American	No	No	NA	NA
59a07638bfd73c00010ea394	256177	2	main	z	52	circle	global	LVF	yes	present	1	829	25	12.5	25	12.5	75	23	US	Male	12	Black or African American	No	No	NA	NA
59a07638bfd73c00010ea394	257803	2	main	z	53	square	global	LVF	yes	present	1	821	25	12.5	25	12.5	75	23	US	Male	12	Black or African American	No	No	NA	NA
59a07638bfd73c00010ea394	259500	2	main	z	54	circle	local	LVF	yes	present	1	870	25	12.5	25	12.5	75	23	US	Male	12	Black or African American	No	No	NA	NA
59a07638bfd73c00010ea394	261202	2	main	z	55	square	local	LVF	yes	present	1	837	25	12.5	25	12.5	75	23	US	Male	12	Black or African American	No	No	NA	NA
59a07638bfd73c00010ea394	262891	2	main	z	56	square	global	LVF	yes	present	1	855	25	12.5	25	12.5	75	23	US	Male	12	Black or African American	No	No	NA	NA
59a07638bfd73c00010ea394	264721	2	main	z	57	circle	local	RVF	yes	present	1	930	25	12.5	25	12.5	75	23	US	Male	12	Black or African American	No	No	NA	NA
59a07638bfd73c00010ea394	266546	2	main	z	58	square	global	RVF	yes	present	1	998	25	12.5	25	12.5	75	23	US	Male	12	Black or African American	No	No	NA	NA
59a07638bfd73c00010ea394	268377	2	main	z	59	circle	local	RVF	yes	present	1	1004	25	12.5	25	12.5	75	23	US	Male	12	Black or African American	No	No	NA	NA
59a07638bfd73c00010ea394	270017	2	main	z	60	square	local	RVF	yes	present	1	836	25	12.5	25	12.5	75	23	US	Male	12	Black or African American	No	No	NA	NA
59a07638bfd73c00010ea394	271721	2	main	z	61	square	global	LVF	yes	present	1	854	25	12.5	25	12.5	75	23	US	Male	12	Black or African American	No	No	NA	NA
59a07638bfd73c00010ea394	273457	2	main	z	62	square	global	LVF	yes	present	1	893	25	12.5	25	12.5	75	23	US	Male	12	Black or African American	No	No	NA	NA
59a07638bfd73c00010ea394	275889	2	main	z	63	absent	absent	absent	no	present	0	1533	25	12.5	25	12.5	75	23	US	Male	12	Black or African American	No	No	NA	NA
59a07638bfd73c00010ea394	278716	2	main	z	64	square	global	RVF	yes	absent	0	2000	25	12.5	25	12.5	75	23	US	Male	12	Black or African American	No	No	NA	NA
59a07638bfd73c00010ea394	281740	2	main	z	65	absent	absent	absent	no	absent	1	2000	25	12.5	25	12.5	75	23	US	Male	12	Black or African American	No	No	NA	NA
59a07638bfd73c00010ea394	285006	2	main	z	66	absent	absent	absent	no	absent	1	2000	25	12.5	25	12.5	75	23	US	Male	12	Black or African American	No	No	NA	NA
59a07638bfd73c00010ea394	286809	2	main	z	67	square	local	LVF	yes	present	1	739	25	12.5	25	12.5	75	23	US	Male	12	Black or African American	No	No	NA	NA
59a07638bfd73c00010ea394	289620	2	main	z	68	absent	absent	absent	no	absent	1	2000	25	12.5	25	12.5	75	23	US	Male	12	Black or African American	No	No	NA	NA
59a07638bfd73c00010ea394	292668	2	main	z	69	square	global	RVF	yes	absent	0	2000	25	12.5	25	12.5	75	23	US	Male	12	Black or African American	No	No	NA	NA
59a07638bfd73c00010ea394	294505	2	main	z	70	square	local	LVF	yes	present	1	835	25	12.5	25	12.5	75	23	US	Male	12	Black or African American	No	No	NA	NA
59a07638bfd73c00010ea394	296073	2	main	z	71	square	local	RVF	yes	present	1	763	25	12.5	25	12.5	75	23	US	Male	12	Black or African American	No	No	NA	NA
59a07638bfd73c00010ea394	297745	2	main	z	72	circle	local	LVF	yes	present	1	860	25	12.5	25	12.5	75	23	US	Male	12	Black or African American	No	No	NA	NA
59a07638bfd73c00010ea394	299449	2	main	z	73	circle	local	RVF	yes	present	1	915	25	12.5	25	12.5	75	23	US	Male	12	Black or African American	No	No	NA	NA
59a07638bfd73c00010ea394	301113	2	main	z	74	circle	global	LVF	yes	present	1	875	25	12.5	25	12.5	75	23	US	Male	12	Black or African American	No	No	NA	NA
59a07638bfd73c00010ea394	303940	2	main	z	75	absent	absent	absent	no	absent	1	2000	25	12.5	25	12.5	75	23	US	Male	12	Black or African American	No	No	NA	NA
59a07638bfd73c00010ea394	305689	2	main	z	76	circle	local	LVF	yes	present	1	725	25	12.5	25	12.5	75	23	US	Male	12	Black or African American	No	No	NA	NA
59a07638bfd73c00010ea394	307473	2	main	z	77	circle	global	LVF	yes	present	1	996	25	12.5	25	12.5	75	23	US	Male	12	Black or African American	No	No	NA	NA
59a07638bfd73c00010ea394	308913	2	main	z	78	square	local	LVF	yes	present	1	675	25	12.5	25	12.5	75	23	US	Male	12	Black or African American	No	No	NA	NA
59a07638bfd73c00010ea394	311740	2	main	z	79	absent	absent	absent	no	absent	1	2000	25	12.5	25	12.5	75	23	US	Male	12	Black or African American	No	No	NA	NA
59a07638bfd73c00010ea394	314588	2	main	z	80	absent	absent	absent	no	absent	1	2000	25	12.5	25	12.5	75	23	US	Male	12	Black or African American	No	No	NA	NA
59a07638bfd73c00010ea394	327482	3	practice	slash	1	square	global	RVF	yes	present	1	681	25	12.5	25	12.5	75	23	US	Male	12	Black or African American	No	No	NA	NA
59a07638bfd73c00010ea394	330329	3	practice	slash	2	circle	local	RVF	yes	present	1	645	25	12.5	25	12.5	75	23	US	Male	12	Black or African American	No	No	NA	NA
59a07638bfd73c00010ea394	333049	3	practice	slash	3	square	global	LVF	yes	present	1	629	25	12.5	25	12.5	75	23	US	Male	12	Black or African American	No	No	NA	NA
59a07638bfd73c00010ea394	335636	3	practice	slash	4	square	global	LVF	yes	present	1	719	25	12.5	25	12.5	75	23	US	Male	12	Black or African American	No	No	NA	NA
59a07638bfd73c00010ea394	338017	3	practice	slash	5	circle	local	RVF	yes	present	1	498	25	12.5	25	12.5	75	23	US	Male	12	Black or African American	No	No	NA	NA
59a07638bfd73c00010ea394	342013	3	practice	slash	6	absent	absent	absent	no	absent	1	2000	25	12.5	25	12.5	75	23	US	Male	12	Black or African American	No	No	NA	NA
59a07638bfd73c00010ea394	344585	3	practice	slash	7	circle	global	LVF	yes	present	1	636	25	12.5	25	12.5	75	23	US	Male	12	Black or African American	No	No	NA	NA
59a07638bfd73c00010ea394	347267	3	practice	slash	8	circle	global	RVF	yes	present	1	765	25	12.5	25	12.5	75	23	US	Male	12	Black or African American	No	No	NA	NA
59a07638bfd73c00010ea394	351300	3	practice	slash	9	absent	absent	absent	no	absent	1	2000	25	12.5	25	12.5	75	23	US	Male	12	Black or African American	No	No	NA	NA
59a07638bfd73c00010ea394	353961	3	practice	slash	10	circle	global	RVF	yes	present	1	669	25	12.5	25	12.5	75	23	US	Male	12	Black or African American	No	No	NA	NA
59a07638bfd73c00010ea394	357804	3	practice	slash	11	absent	absent	absent	no	absent	1	2000	25	12.5	25	12.5	75	23	US	Male	12	Black or African American	No	No	NA	NA
59a07638bfd73c00010ea394	360569	3	practice	slash	12	square	local	LVF	yes	present	1	779	25	12.5	25	12.5	75	23	US	Male	12	Black or African American	No	No	NA	NA
59a07638bfd73c00010ea394	363116	3	practice	slash	13	square	local	LVF	yes	present	1	727	25	12.5	25	12.5	75	23	US	Male	12	Black or African American	No	No	NA	NA
59a07638bfd73c00010ea394	365825	3	practice	slash	14	circle	local	RVF	yes	present	1	725	25	12.5	25	12.5	75	23	US	Male	12	Black or African American	No	No	NA	NA
59a07638bfd73c00010ea394	369748	3	practice	slash	15	absent	absent	absent	no	absent	1	2000	25	12.5	25	12.5	75	23	US	Male	12	Black or African American	No	No	NA	NA
59a07638bfd73c00010ea394	372465	3	practice	slash	16	circle	global	LVF	yes	present	1	765	25	12.5	25	12.5	75	23	US	Male	12	Black or African American	No	No	NA	NA
59a07638bfd73c00010ea394	377207	4	main	slash	1	absent	absent	absent	no	absent	1	2000	25	12.5	25	12.5	75	23	US	Male	12	Black or African American	No	No	NA	NA
59a07638bfd73c00010ea394	379036	4	main	slash	2	circle	global	RVF	yes	present	1	749	25	12.5	25	12.5	75	23	US	Male	12	Black or African American	No	No	NA	NA
59a07638bfd73c00010ea394	381242	4	main	slash	3	square	local	LVF	yes	present	1	740	25	12.5	25	12.5	75	23	US	Male	12	Black or African American	No	No	NA	NA
59a07638bfd73c00010ea394	382857	4	main	slash	4	square	local	RVF	yes	present	1	717	25	12.5	25	12.5	75	23	US	Male	12	Black or African American	No	No	NA	NA
59a07638bfd73c00010ea394	384569	4	main	slash	5	circle	local	RVF	yes	present	1	789	25	12.5	25	12.5	75	23	US	Male	12	Black or African American	No	No	NA	NA
59a07638bfd73c00010ea394	386251	4	main	slash	6	circle	global	LVF	yes	present	1	839	25	12.5	25	12.5	75	23	US	Male	12	Black or African American	No	No	NA	NA
59a07638bfd73c00010ea394	387932	4	main	slash	7	circle	local	RVF	yes	present	1	760	25	12.5	25	12.5	75	23	US	Male	12	Black or African American	No	No	NA	NA
59a07638bfd73c00010ea394	389674	4	main	slash	8	square	global	LVF	yes	present	1	838	25	12.5	25	12.5	75	23	US	Male	12	Black or African American	No	No	NA	NA
59a07638bfd73c00010ea394	391473	4	main	slash	9	circle	global	RVF	yes	present	1	899	25	12.5	25	12.5	75	23	US	Male	12	Black or African American	No	No	NA	NA
59a07638bfd73c00010ea394	393138	4	main	slash	10	circle	global	LVF	yes	present	1	861	25	12.5	25	12.5	75	23	US	Male	12	Black or African American	No	No	NA	NA
59a07638bfd73c00010ea394	394929	4	main	slash	11	circle	local	RVF	yes	present	1	915	25	12.5	25	12.5	75	23	US	Male	12	Black or African American	No	No	NA	NA
59a07638bfd73c00010ea394	396665	4	main	slash	12	circle	local	LVF	yes	present	1	954	25	12.5	25	12.5	75	23	US	Male	12	Black or African American	No	No	NA	NA
59a07638bfd73c00010ea394	399486	4	main	slash	13	absent	absent	absent	no	absent	1	2000	25	12.5	25	12.5	75	23	US	Male	12	Black or African American	No	No	NA	NA
59a07638bfd73c00010ea394	401289	4	main	slash	14	square	global	LVF	yes	present	1	829	25	12.5	25	12.5	75	23	US	Male	12	Black or African American	No	No	NA	NA
59a07638bfd73c00010ea394	403049	4	main	slash	15	square	local	LVF	yes	present	1	900	25	12.5	25	12.5	75	23	US	Male	12	Black or African American	No	No	NA	NA
59a07638bfd73c00010ea394	404809	4	main	slash	16	square	local	RVF	yes	present	1	893	25	12.5	25	12.5	75	23	US	Male	12	Black or African American	No	No	NA	NA
59a07638bfd73c00010ea394	406601	4	main	slash	17	square	global	RVF	yes	present	1	933	25	12.5	25	12.5	75	23	US	Male	12	Black or African American	No	No	NA	NA
59a07638bfd73c00010ea394	408321	4	main	slash	18	circle	local	LVF	yes	present	1	917	25	12.5	25	12.5	75	23	US	Male	12	Black or African American	No	No	NA	NA
59a07638bfd73c00010ea394	410081	4	main	slash	19	circle	local	LVF	yes	present	1	933	25	12.5	25	12.5	75	23	US	Male	12	Black or African American	No	No	NA	NA
59a07638bfd73c00010ea394	412879	4	main	slash	20	absent	absent	absent	no	absent	1	2000	25	12.5	25	12.5	75	23	US	Male	12	Black or African American	No	No	NA	NA
59a07638bfd73c00010ea394	415145	4	main	slash	21	square	local	LVF	yes	present	1	861	25	12.5	25	12.5	75	23	US	Male	12	Black or African American	No	No	NA	NA
59a07638bfd73c00010ea394	418004	4	main	slash	22	absent	absent	absent	no	absent	1	2000	25	12.5	25	12.5	75	23	US	Male	12	Black or African American	No	No	NA	NA
59a07638bfd73c00010ea394	419905	4	main	slash	23	circle	global	LVF	yes	present	1	909	25	12.5	25	12.5	75	23	US	Male	12	Black or African American	No	No	NA	NA
59a07638bfd73c00010ea394	421586	4	main	slash	24	circle	local	RVF	yes	present	1	781	25	12.5	25	12.5	75	23	US	Male	12	Black or African American	No	No	NA	NA
59a07638bfd73c00010ea394	424486	4	main	slash	25	absent	absent	absent	no	absent	1	2000	25	12.5	25	12.5	75	23	US	Male	12	Black or African American	No	No	NA	NA
59a07638bfd73c00010ea394	426273	4	main	slash	26	circle	global	LVF	yes	present	1	821	25	12.5	25	12.5	75	23	US	Male	12	Black or African American	No	No	NA	NA
59a07638bfd73c00010ea394	428106	4	main	slash	27	square	global	LVF	yes	present	1	949	25	12.5	25	12.5	75	23	US	Male	12	Black or African American	No	No	NA	NA
59a07638bfd73c00010ea394	430049	4	main	slash	28	circle	local	LVF	yes	present	1	1117	25	12.5	25	12.5	75	23	US	Male	12	Black or African American	No	No	NA	NA
59a07638bfd73c00010ea394	432812	4	main	slash	29	absent	absent	absent	no	absent	1	2000	25	12.5	25	12.5	75	23	US	Male	12	Black or African American	No	No	NA	NA
59a07638bfd73c00010ea394	434595	4	main	slash	30	square	local	RVF	yes	present	1	837	25	12.5	25	12.5	75	23	US	Male	12	Black or African American	No	No	NA	NA
59a07638bfd73c00010ea394	437420	4	main	slash	31	absent	absent	absent	no	absent	1	2000	25	12.5	25	12.5	75	23	US	Male	12	Black or African American	No	No	NA	NA
59a07638bfd73c00010ea394	439307	4	main	slash	32	square	global	RVF	yes	present	1	926	25	12.5	25	12.5	75	23	US	Male	12	Black or African American	No	No	NA	NA
59a07638bfd73c00010ea394	442094	4	main	slash	33	absent	absent	absent	no	absent	1	2000	25	12.5	25	12.5	75	23	US	Male	12	Black or African American	No	No	NA	NA
59a07638bfd73c00010ea394	443754	4	main	slash	34	square	local	RVF	yes	present	1	837	25	12.5	25	12.5	75	23	US	Male	12	Black or African American	No	No	NA	NA
59a07638bfd73c00010ea394	445404	4	main	slash	35	square	global	RVF	yes	present	1	856	25	12.5	25	12.5	75	23	US	Male	12	Black or African American	No	No	NA	NA
59a07638bfd73c00010ea394	446971	4	main	slash	36	square	global	RVF	yes	present	1	758	25	12.5	25	12.5	75	23	US	Male	12	Black or African American	No	No	NA	NA
59a07638bfd73c00010ea394	448601	4	main	slash	37	square	global	LVF	yes	present	1	804	25	12.5	25	12.5	75	23	US	Male	12	Black or African American	No	No	NA	NA
59a07638bfd73c00010ea394	450297	4	main	slash	38	square	local	LVF	yes	present	1	869	25	12.5	25	12.5	75	23	US	Male	12	Black or African American	No	No	NA	NA
59a07638bfd73c00010ea394	453084	4	main	slash	39	circle	global	RVF	yes	absent	0	2000	25	12.5	25	12.5	75	23	US	Male	12	Black or African American	No	No	NA	NA
59a07638bfd73c00010ea394	455059	4	main	slash	40	circle	global	RVF	yes	present	1	815	25	12.5	25	12.5	75	23	US	Male	12	Black or African American	No	No	NA	NA
59a07638bfd73c00010ea394	456681	4	main	slash	41	square	global	LVF	yes	present	1	837	25	12.5	25	12.5	75	23	US	Male	12	Black or African American	No	No	NA	NA
59a07638bfd73c00010ea394	458378	4	main	slash	42	circle	global	RVF	yes	present	1	757	25	12.5	25	12.5	75	23	US	Male	12	Black or African American	No	No	NA	NA
59a07638bfd73c00010ea394	460113	4	main	slash	43	square	local	RVF	yes	present	1	914	25	12.5	25	12.5	75	23	US	Male	12	Black or African American	No	No	NA	NA
59a07638bfd73c00010ea394	461738	4	main	slash	44	circle	local	LVF	yes	present	1	853	25	12.5	25	12.5	75	23	US	Male	12	Black or African American	No	No	NA	NA
59a07638bfd73c00010ea394	463355	4	main	slash	45	circle	local	LVF	yes	present	1	831	25	12.5	25	12.5	75	23	US	Male	12	Black or African American	No	No	NA	NA
59a07638bfd73c00010ea394	464995	4	main	slash	46	square	global	RVF	yes	present	1	855	25	12.5	25	12.5	75	23	US	Male	12	Black or African American	No	No	NA	NA
59a07638bfd73c00010ea394	466658	4	main	slash	47	square	global	LVF	yes	present	1	853	25	12.5	25	12.5	75	23	US	Male	12	Black or African American	No	No	NA	NA
59a07638bfd73c00010ea394	468258	4	main	slash	48	circle	local	RVF	yes	present	1	838	25	12.5	25	12.5	75	23	US	Male	12	Black or African American	No	No	NA	NA
59a07638bfd73c00010ea394	469988	4	main	slash	49	circle	global	LVF	yes	present	1	967	25	12.5	25	12.5	75	23	US	Male	12	Black or African American	No	No	NA	NA
59a07638bfd73c00010ea394	471586	4	main	slash	50	circle	local	LVF	yes	present	1	829	25	12.5	25	12.5	75	23	US	Male	12	Black or African American	No	No	NA	NA
59a07638bfd73c00010ea394	474372	4	main	slash	51	absent	absent	absent	no	absent	1	2000	25	12.5	25	12.5	75	23	US	Male	12	Black or African American	No	No	NA	NA
59a07638bfd73c00010ea394	476113	4	main	slash	52	square	global	RVF	yes	present	1	757	25	12.5	25	12.5	75	23	US	Male	12	Black or African American	No	No	NA	NA
59a07638bfd73c00010ea394	477681	4	main	slash	53	circle	global	LVF	yes	present	1	765	25	12.5	25	12.5	75	23	US	Male	12	Black or African American	No	No	NA	NA
59a07638bfd73c00010ea394	480463	4	main	slash	54	absent	absent	absent	no	absent	1	2000	25	12.5	25	12.5	75	23	US	Male	12	Black or African American	No	No	NA	NA
59a07638bfd73c00010ea394	483262	4	main	slash	55	absent	absent	absent	no	absent	1	2000	25	12.5	25	12.5	75	23	US	Male	12	Black or African American	No	No	NA	NA
59a07638bfd73c00010ea394	484829	4	main	slash	56	circle	global	LVF	yes	present	1	721	25	12.5	25	12.5	75	23	US	Male	12	Black or African American	No	No	NA	NA
59a07638bfd73c00010ea394	486378	4	main	slash	57	square	global	RVF	yes	present	1	742	25	12.5	25	12.5	75	23	US	Male	12	Black or African American	No	No	NA	NA
59a07638bfd73c00010ea394	489149	4	main	slash	58	square	local	LVF	yes	absent	0	2000	25	12.5	25	12.5	75	23	US	Male	12	Black or African American	No	No	NA	NA
59a07638bfd73c00010ea394	491852	4	main	slash	59	absent	absent	absent	no	absent	1	2000	25	12.5	25	12.5	75	23	US	Male	12	Black or African American	No	No	NA	NA
59a07638bfd73c00010ea394	493610	4	main	slash	60	circle	local	LVF	yes	present	1	894	25	12.5	25	12.5	75	23	US	Male	12	Black or African American	No	No	NA	NA
59a07638bfd73c00010ea394	495594	4	main	slash	61	circle	global	RVF	yes	present	1	950	25	12.5	25	12.5	75	23	US	Male	12	Black or African American	No	No	NA	NA
59a07638bfd73c00010ea394	497306	4	main	slash	62	square	global	LVF	yes	present	1	917	25	12.5	25	12.5	75	23	US	Male	12	Black or African American	No	No	NA	NA
59a07638bfd73c00010ea394	499076	4	main	slash	63	square	local	RVF	yes	present	1	949	25	12.5	25	12.5	75	23	US	Male	12	Black or African American	No	No	NA	NA
59a07638bfd73c00010ea394	501868	4	main	slash	64	absent	absent	absent	no	absent	1	2000	25	12.5	25	12.5	75	23	US	Male	12	Black or African American	No	No	NA	NA
59a07638bfd73c00010ea394	503618	4	main	slash	65	square	local	RVF	yes	present	1	822	25	12.5	25	12.5	75	23	US	Male	12	Black or African American	No	No	NA	NA
59a07638bfd73c00010ea394	505266	4	main	slash	66	circle	local	RVF	yes	present	1	803	25	12.5	25	12.5	75	23	US	Male	12	Black or African American	No	No	NA	NA
59a07638bfd73c00010ea394	506930	4	main	slash	67	circle	global	LVF	yes	present	1	838	25	12.5	25	12.5	75	23	US	Male	12	Black or African American	No	No	NA	NA
59a07638bfd73c00010ea394	508482	4	main	slash	68	square	local	LVF	yes	present	1	781	25	12.5	25	12.5	75	23	US	Male	12	Black or African American	No	No	NA	NA
59a07638bfd73c00010ea394	511364	4	main	slash	69	absent	absent	absent	no	absent	1	2000	25	12.5	25	12.5	75	23	US	Male	12	Black or African American	No	No	NA	NA
59a07638bfd73c00010ea394	513258	4	main	slash	70	circle	global	RVF	yes	present	1	797	25	12.5	25	12.5	75	23	US	Male	12	Black or African American	No	No	NA	NA
59a07638bfd73c00010ea394	514858	4	main	slash	71	circle	local	RVF	yes	present	1	814	25	12.5	25	12.5	75	23	US	Male	12	Black or African American	No	No	NA	NA
59a07638bfd73c00010ea394	517628	4	main	slash	72	absent	absent	absent	no	absent	1	2000	25	12.5	25	12.5	75	23	US	Male	12	Black or African American	No	No	NA	NA
59a07638bfd73c00010ea394	519507	4	main	slash	73	square	global	RVF	yes	present	1	837	25	12.5	25	12.5	75	23	US	Male	12	Black or African American	No	No	NA	NA
59a07638bfd73c00010ea394	521052	4	main	slash	74	circle	global	RVF	yes	present	1	759	25	12.5	25	12.5	75	23	US	Male	12	Black or African American	No	No	NA	NA
59a07638bfd73c00010ea394	522482	4	main	slash	75	square	global	LVF	yes	present	1	622	25	12.5	25	12.5	75	23	US	Male	12	Black or African American	No	No	NA	NA
59a07638bfd73c00010ea394	523962	4	main	slash	76	square	local	LVF	yes	present	1	652	25	12.5	25	12.5	75	23	US	Male	12	Black or African American	No	No	NA	NA
59a07638bfd73c00010ea394	525546	4	main	slash	77	square	local	RVF	yes	present	1	779	25	12.5	25	12.5	75	23	US	Male	12	Black or African American	No	No	NA	NA
59a07638bfd73c00010ea394	528333	4	main	slash	78	absent	absent	absent	no	absent	1	2000	25	12.5	25	12.5	75	23	US	Male	12	Black or African American	No	No	NA	NA
59a07638bfd73c00010ea394	529794	4	main	slash	79	circle	local	RVF	yes	present	1	622	25	12.5	25	12.5	75	23	US	Male	12	Black or African American	No	No	NA	NA
59a07638bfd73c00010ea394	531234	4	main	slash	80	square	local	LVF	yes	present	1	645	25	12.5	25	12.5	75	23	US	Male	12	Black or African American	No	No	NA	NA
5dee933631a7e05381da6b02	115610	1	practice	slash	1	absent	absent	absent	no	absent	1	2000	25	25	25	25	100	33	US	Male	16	Black or African American	No	No	NA	NA
5dee933631a7e05381da6b02	119260	1	practice	slash	2	circle	global	LVF	yes	present	1	679	25	25	25	25	100	33	US	Male	16	Black or African American	No	No	NA	NA
5dee933631a7e05381da6b02	123584	1	practice	slash	3	circle	local	RVF	yes	absent	0	2000	25	25	25	25	100	33	US	Male	16	Black or African American	No	No	NA	NA
5dee933631a7e05381da6b02	126653	1	practice	slash	4	square	local	LVF	yes	present	1	881	25	25	25	25	100	33	US	Male	16	Black or African American	No	No	NA	NA
5dee933631a7e05381da6b02	129501	1	practice	slash	5	square	global	LVF	yes	present	1	658	25	25	25	25	100	33	US	Male	16	Black or African American	No	No	NA	NA
5dee933631a7e05381da6b02	132324	1	practice	slash	6	circle	local	RVF	yes	present	1	680	25	25	25	25	100	33	US	Male	16	Black or African American	No	No	NA	NA
5dee933631a7e05381da6b02	135405	1	practice	slash	7	absent	absent	absent	no	present	0	1091	25	25	25	25	100	33	US	Male	16	Black or African American	No	No	NA	NA
5dee933631a7e05381da6b02	138063	1	practice	slash	8	circle	global	RVF	yes	present	1	669	25	25	25	25	100	33	US	Male	16	Black or African American	No	No	NA	NA
5dee933631a7e05381da6b02	141969	1	practice	slash	9	absent	absent	absent	no	absent	1	2000	25	25	25	25	100	33	US	Male	16	Black or African American	No	No	NA	NA
5dee933631a7e05381da6b02	144629	1	practice	slash	10	square	global	LVF	yes	present	1	672	25	25	25	25	100	33	US	Male	16	Black or African American	No	No	NA	NA
5dee933631a7e05381da6b02	147356	1	practice	slash	11	square	local	LVF	yes	present	1	747	25	25	25	25	100	33	US	Male	16	Black or African American	No	No	NA	NA
5dee933631a7e05381da6b02	149899	1	practice	slash	12	square	global	RVF	yes	present	1	621	25	25	25	25	100	33	US	Male	16	Black or African American	No	No	NA	NA
5dee933631a7e05381da6b02	152420	1	practice	slash	13	circle	global	RVF	yes	present	1	622	25	25	25	25	100	33	US	Male	16	Black or African American	No	No	NA	NA
5dee933631a7e05381da6b02	156300	1	practice	slash	14	absent	absent	absent	no	absent	1	2000	25	25	25	25	100	33	US	Male	16	Black or African American	No	No	NA	NA
5dee933631a7e05381da6b02	159388	1	practice	slash	15	circle	local	RVF	yes	present	1	1150	25	25	25	25	100	33	US	Male	16	Black or African American	No	No	NA	NA
5dee933631a7e05381da6b02	162244	1	practice	slash	16	circle	global	LVF	yes	present	1	820	25	25	25	25	100	33	US	Male	16	Black or African American	No	No	NA	NA
5dee933631a7e05381da6b02	168914	2	main	slash	1	square	local	RVF	yes	present	1	851	25	25	25	25	100	33	US	Male	16	Black or African American	No	No	NA	NA
5dee933631a7e05381da6b02	171090	2	main	slash	2	square	global	LVF	yes	present	1	741	25	25	25	25	100	33	US	Male	16	Black or African American	No	No	NA	NA
5dee933631a7e05381da6b02	173010	2	main	slash	3	circle	local	LVF	yes	present	1	709	25	25	25	25	100	33	US	Male	16	Black or African American	No	No	NA	NA
5dee933631a7e05381da6b02	174762	2	main	slash	4	square	local	LVF	yes	present	1	676	25	25	25	25	100	33	US	Male	16	Black or African American	No	No	NA	NA
5dee933631a7e05381da6b02	176970	2	main	slash	5	absent	absent	absent	no	present	0	1099	25	25	25	25	100	33	US	Male	16	Black or African American	No	No	NA	NA
5dee933631a7e05381da6b02	178978	2	main	slash	6	square	local	RVF	yes	present	1	655	25	25	25	25	100	33	US	Male	16	Black or African American	No	No	NA	NA
5dee933631a7e05381da6b02	182075	2	main	slash	7	absent	absent	absent	no	absent	1	2000	25	25	25	25	100	33	US	Male	16	Black or African American	No	No	NA	NA
5dee933631a7e05381da6b02	183682	2	main	slash	8	circle	global	LVF	yes	present	1	620	25	25	25	25	100	33	US	Male	16	Black or African American	No	No	NA	NA
5dee933631a7e05381da6b02	185586	2	main	slash	9	circle	global	RVF	yes	present	1	656	25	25	25	25	100	33	US	Male	16	Black or African American	No	No	NA	NA
5dee933631a7e05381da6b02	187442	2	main	slash	10	square	local	RVF	yes	present	1	727	25	25	25	25	100	33	US	Male	16	Black or African American	No	No	NA	NA
5dee933631a7e05381da6b02	189322	2	main	slash	11	circle	global	RVF	yes	present	1	772	25	25	25	25	100	33	US	Male	16	Black or African American	No	No	NA	NA
5dee933631a7e05381da6b02	191202	2	main	slash	12	circle	local	RVF	yes	present	1	783	25	25	25	25	100	33	US	Male	16	Black or African American	No	No	NA	NA
5dee933631a7e05381da6b02	193194	2	main	slash	13	circle	local	LVF	yes	present	1	856	25	25	25	25	100	33	US	Male	16	Black or African American	No	No	NA	NA
5dee933631a7e05381da6b02	195490	2	main	slash	14	square	local	RVF	yes	present	1	1050	25	25	25	25	100	33	US	Male	16	Black or African American	No	No	NA	NA
5dee933631a7e05381da6b02	198758	2	main	slash	15	absent	absent	absent	no	absent	1	2000	25	25	25	25	100	33	US	Male	16	Black or African American	No	No	NA	NA
5dee933631a7e05381da6b02	201828	2	main	slash	16	absent	absent	absent	no	absent	1	2000	25	25	25	25	100	33	US	Male	16	Black or African American	No	No	NA	NA
5dee933631a7e05381da6b02	203546	2	main	slash	17	square	global	RVF	yes	present	1	648	25	25	25	25	100	33	US	Male	16	Black or African American	No	No	NA	NA
5dee933631a7e05381da6b02	205314	2	main	slash	18	square	global	LVF	yes	present	1	681	25	25	25	25	100	33	US	Male	16	Black or African American	No	No	NA	NA
5dee933631a7e05381da6b02	207210	2	main	slash	19	square	global	RVF	yes	present	1	892	25	25	25	25	100	33	US	Male	16	Black or African American	No	No	NA	NA
5dee933631a7e05381da6b02	210253	2	main	slash	20	absent	absent	absent	no	absent	1	2000	25	25	25	25	100	33	US	Male	16	Black or African American	No	No	NA	NA
5dee933631a7e05381da6b02	211922	2	main	slash	21	square	local	LVF	yes	present	1	649	25	25	25	25	100	33	US	Male	16	Black or African American	No	No	NA	NA
5dee933631a7e05381da6b02	213754	2	main	slash	22	circle	local	RVF	yes	present	1	763	25	25	25	25	100	33	US	Male	16	Black or African American	No	No	NA	NA
5dee933631a7e05381da6b02	215474	2	main	slash	23	square	local	LVF	yes	present	1	681	25	25	25	25	100	33	US	Male	16	Black or African American	No	No	NA	NA
5dee933631a7e05381da6b02	217314	2	main	slash	24	square	global	RVF	yes	present	1	819	25	25	25	25	100	33	US	Male	16	Black or African American	No	No	NA	NA
5dee933631a7e05381da6b02	220296	2	main	slash	25	absent	absent	absent	no	absent	1	2000	25	25	25	25	100	33	US	Male	16	Black or African American	No	No	NA	NA
5dee933631a7e05381da6b02	221938	2	main	slash	26	square	global	LVF	yes	present	1	722	25	25	25	25	100	33	US	Male	16	Black or African American	No	No	NA	NA
5dee933631a7e05381da6b02	223794	2	main	slash	27	circle	global	RVF	yes	present	1	826	25	25	25	25	100	33	US	Male	16	Black or African American	No	No	NA	NA
5dee933631a7e05381da6b02	225570	2	main	slash	28	circle	global	LVF	yes	present	1	817	25	25	25	25	100	33	US	Male	16	Black or African American	No	No	NA	NA
5dee933631a7e05381da6b02	227706	2	main	slash	29	absent	absent	absent	no	present	0	1201	25	25	25	25	100	33	US	Male	16	Black or African American	No	No	NA	NA
5dee933631a7e05381da6b02	229554	2	main	slash	30	circle	global	LVF	yes	present	1	747	25	25	25	25	100	33	US	Male	16	Black or African American	No	No	NA	NA
5dee933631a7e05381da6b02	231514	2	main	slash	31	circle	global	RVF	yes	present	1	1005	25	25	25	25	100	33	US	Male	16	Black or African American	No	No	NA	NA
5dee933631a7e05381da6b02	234444	2	main	slash	32	absent	absent	absent	no	absent	1	2000	25	25	25	25	100	33	US	Male	16	Black or African American	No	No	NA	NA
5dee933631a7e05381da6b02	236362	2	main	slash	33	circle	local	RVF	yes	present	1	749	25	25	25	25	100	33	US	Male	16	Black or African American	No	No	NA	NA
5dee933631a7e05381da6b02	238298	2	main	slash	34	square	global	LVF	yes	present	1	949	25	25	25	25	100	33	US	Male	16	Black or African American	No	No	NA	NA
5dee933631a7e05381da6b02	240122	2	main	slash	35	circle	local	RVF	yes	present	1	788	25	25	25	25	100	33	US	Male	16	Black or African American	No	No	NA	NA
5dee933631a7e05381da6b02	241906	2	main	slash	36	circle	local	LVF	yes	present	1	786	25	25	25	25	100	33	US	Male	16	Black or African American	No	No	NA	NA
5dee933631a7e05381da6b02	243498	2	main	slash	37	square	global	RVF	yes	present	1	644	25	25	25	25	100	33	US	Male	16	Black or African American	No	No	NA	NA
5dee933631a7e05381da6b02	245226	2	main	slash	38	square	local	LVF	yes	present	1	603	25	25	25	25	100	33	US	Male	16	Black or African American	No	No	NA	NA
5dee933631a7e05381da6b02	246954	2	main	slash	39	circle	global	LVF	yes	present	1	696	25	25	25	25	100	33	US	Male	16	Black or African American	No	No	NA	NA
5dee933631a7e05381da6b02	248706	2	main	slash	40	circle	local	LVF	yes	present	1	781	25	25	25	25	100	33	US	Male	16	Black or African American	No	No	NA	NA
5dee933631a7e05381da6b02	251678	2	main	slash	41	absent	absent	absent	no	absent	1	2000	25	25	25	25	100	33	US	Male	16	Black or African American	No	No	NA	NA
5dee933631a7e05381da6b02	253562	2	main	slash	42	circle	local	LVF	yes	present	1	581	25	25	25	25	100	33	US	Male	16	Black or African American	No	No	NA	NA
5dee933631a7e05381da6b02	255290	2	main	slash	43	square	local	LVF	yes	present	1	690	25	25	25	25	100	33	US	Male	16	Black or African American	No	No	NA	NA
5dee933631a7e05381da6b02	258301	2	main	slash	44	absent	absent	absent	no	absent	1	2000	25	25	25	25	100	33	US	Male	16	Black or African American	No	No	NA	NA
5dee933631a7e05381da6b02	260082	2	main	slash	45	square	global	RVF	yes	present	1	677	25	25	25	25	100	33	US	Male	16	Black or African American	No	No	NA	NA
5dee933631a7e05381da6b02	261770	2	main	slash	46	circle	local	RVF	yes	present	1	714	25	25	25	25	100	33	US	Male	16	Black or African American	No	No	NA	NA
5dee933631a7e05381da6b02	263514	2	main	slash	47	square	local	LVF	yes	present	1	773	25	25	25	25	100	33	US	Male	16	Black or African American	No	No	NA	NA
5dee933631a7e05381da6b02	265386	2	main	slash	48	absent	absent	absent	no	present	0	943	25	25	25	25	100	33	US	Male	16	Black or African American	No	No	NA	NA
5dee933631a7e05381da6b02	267130	2	main	slash	49	square	global	LVF	yes	present	1	768	25	25	25	25	100	33	US	Male	16	Black or African American	No	No	NA	NA
5dee933631a7e05381da6b02	268930	2	main	slash	50	circle	local	LVF	yes	present	1	850	25	25	25	25	100	33	US	Male	16	Black or African American	No	No	NA	NA
5dee933631a7e05381da6b02	271831	2	main	slash	51	absent	absent	absent	no	absent	1	2000	25	25	25	25	100	33	US	Male	16	Black or African American	No	No	NA	NA
5dee933631a7e05381da6b02	273547	2	main	slash	52	circle	local	LVF	yes	present	1	662	25	25	25	25	100	33	US	Male	16	Black or African American	No	No	NA	NA
5dee933631a7e05381da6b02	277482	2	main	slash	53	square	global	RVF	yes	present	1	611	25	25	25	25	100	33	US	Male	16	Black or African American	No	No	NA	NA
5dee933631a7e05381da6b02	279162	2	main	slash	54	square	global	LVF	yes	present	1	588	25	25	25	25	100	33	US	Male	16	Black or African American	No	No	NA	NA
5dee933631a7e05381da6b02	280754	2	main	slash	55	square	local	RVF	yes	present	1	663	25	25	25	25	100	33	US	Male	16	Black or African American	No	No	NA	NA
5dee933631a7e05381da6b02	282250	2	main	slash	56	circle	global	RVF	yes	present	1	573	25	25	25	25	100	33	US	Male	16	Black or African American	No	No	NA	NA
5dee933631a7e05381da6b02	283682	2	main	slash	57	square	local	LVF	yes	present	1	520	25	25	25	25	100	33	US	Male	16	Black or African American	No	No	NA	NA
5dee933631a7e05381da6b02	284914	2	main	slash	58	circle	global	RVF	yes	present	1	418	25	25	25	25	100	33	US	Male	16	Black or African American	No	No	NA	NA
5dee933631a7e05381da6b02	286170	2	main	slash	59	square	global	RVF	yes	present	1	439	25	25	25	25	100	33	US	Male	16	Black or African American	No	No	NA	NA
5dee933631a7e05381da6b02	287442	2	main	slash	60	circle	local	LVF	yes	present	1	493	25	25	25	25	100	33	US	Male	16	Black or African American	No	No	NA	NA
5dee933631a7e05381da6b02	289498	2	main	slash	61	square	local	RVF	yes	present	1	1298	25	25	25	25	100	33	US	Male	16	Black or African American	No	No	NA	NA
5dee933631a7e05381da6b02	290858	2	main	slash	62	circle	local	RVF	yes	present	1	589	25	25	25	25	100	33	US	Male	16	Black or African American	No	No	NA	NA
5dee933631a7e05381da6b02	293653	2	main	slash	63	absent	absent	absent	no	absent	1	2000	25	25	25	25	100	33	US	Male	16	Black or African American	No	No	NA	NA
5dee933631a7e05381da6b02	296314	2	main	slash	64	circle	global	RVF	yes	present	1	1691	25	25	25	25	100	33	US	Male	16	Black or African American	No	No	NA	NA
5dee933631a7e05381da6b02	298906	2	main	slash	65	square	global	LVF	yes	present	1	1213	25	25	25	25	100	33	US	Male	16	Black or African American	No	No	NA	NA
5dee933631a7e05381da6b02	301961	2	main	slash	66	absent	absent	absent	no	absent	1	2000	25	25	25	25	100	33	US	Male	16	Black or African American	No	No	NA	NA
5dee933631a7e05381da6b02	303594	2	main	slash	67	square	local	RVF	yes	present	1	580	25	25	25	25	100	33	US	Male	16	Black or African American	No	No	NA	NA
5dee933631a7e05381da6b02	305290	2	main	slash	68	circle	global	LVF	yes	present	1	441	25	25	25	25	100	33	US	Male	16	Black or African American	No	No	NA	NA
5dee933631a7e05381da6b02	306842	2	main	slash	69	square	global	LVF	yes	present	1	390	25	25	25	25	100	33	US	Male	16	Black or African American	No	No	NA	NA
5dee933631a7e05381da6b02	308168	2	main	slash	70	circle	global	LVF	yes	present	1	376	25	25	25	25	100	33	US	Male	16	Black or African American	No	No	NA	NA
5dee933631a7e05381da6b02	309378	2	main	slash	71	absent	absent	absent	no	present	0	291	25	25	25	25	100	33	US	Male	16	Black or African American	No	No	NA	NA
5dee933631a7e05381da6b02	310898	2	main	slash	72	circle	global	LVF	yes	present	1	360	25	25	25	25	100	33	US	Male	16	Black or African American	No	No	NA	NA
5dee933631a7e05381da6b02	312322	2	main	slash	73	circle	local	RVF	yes	present	1	532	25	25	25	25	100	33	US	Male	16	Black or African American	No	No	NA	NA
5dee933631a7e05381da6b02	313658	2	main	slash	74	circle	global	LVF	yes	present	1	450	25	25	25	25	100	33	US	Male	16	Black or African American	No	No	NA	NA
5dee933631a7e05381da6b02	315010	2	main	slash	75	square	global	RVF	yes	present	1	467	25	25	25	25	100	33	US	Male	16	Black or African American	No	No	NA	NA
5dee933631a7e05381da6b02	316194	2	main	slash	76	square	local	LVF	yes	present	1	266	25	25	25	25	100	33	US	Male	16	Black or African American	No	No	NA	NA
5dee933631a7e05381da6b02	317498	2	main	slash	77	square	local	RVF	yes	present	1	387	25	25	25	25	100	33	US	Male	16	Black or African American	No	No	NA	NA
5dee933631a7e05381da6b02	318666	2	main	slash	78	circle	local	RVF	yes	present	1	269	25	25	25	25	100	33	US	Male	16	Black or African American	No	No	NA	NA
5dee933631a7e05381da6b02	319842	2	main	slash	79	absent	absent	absent	no	present	0	277	25	25	25	25	100	33	US	Male	16	Black or African American	No	No	NA	NA
5dee933631a7e05381da6b02	321834	2	main	slash	80	circle	global	RVF	yes	present	1	701	25	25	25	25	100	33	US	Male	16	Black or African American	No	No	NA	NA
5dee933631a7e05381da6b02	366527	3	practice	z	1	square	global	LVF	yes	present	1	378	25	25	25	25	100	33	US	Male	16	Black or African American	No	No	NA	NA
5dee933631a7e05381da6b02	369188	3	practice	z	2	square	global	RVF	yes	present	1	490	25	25	25	25	100	33	US	Male	16	Black or African American	No	No	NA	NA
5dee933631a7e05381da6b02	371756	3	practice	z	3	circle	local	RVF	yes	present	1	522	25	25	25	25	100	33	US	Male	16	Black or African American	No	No	NA	NA
5dee933631a7e05381da6b02	375753	3	practice	z	4	absent	absent	absent	no	absent	1	2000	25	25	25	25	100	33	US	Male	16	Black or African American	No	No	NA	NA
5dee933631a7e05381da6b02	378324	3	practice	z	5	circle	global	LVF	yes	present	1	734	25	25	25	25	100	33	US	Male	16	Black or African American	No	No	NA	NA
5dee933631a7e05381da6b02	381045	3	practice	z	6	square	global	LVF	yes	present	1	701	25	25	25	25	100	33	US	Male	16	Black or African American	No	No	NA	NA
5dee933631a7e05381da6b02	383845	3	practice	z	7	square	local	LVF	yes	present	1	666	25	25	25	25	100	33	US	Male	16	Black or African American	No	No	NA	NA
5dee933631a7e05381da6b02	386421	3	practice	z	8	circle	local	RVF	yes	present	1	588	25	25	25	25	100	33	US	Male	16	Black or African American	No	No	NA	NA
5dee933631a7e05381da6b02	389012	3	practice	z	9	circle	local	RVF	yes	present	1	578	25	25	25	25	100	33	US	Male	16	Black or African American	No	No	NA	NA
5dee933631a7e05381da6b02	391589	3	practice	z	10	circle	global	LVF	yes	present	1	552	25	25	25	25	100	33	US	Male	16	Black or African American	No	No	NA	NA
5dee933631a7e05381da6b02	394268	3	practice	z	11	square	local	LVF	yes	present	1	678	25	25	25	25	100	33	US	Male	16	Black or African American	No	No	NA	NA
5dee933631a7e05381da6b02	396948	3	practice	z	12	circle	global	RVF	yes	present	1	622	25	25	25	25	100	33	US	Male	16	Black or African American	No	No	NA	NA
5dee933631a7e05381da6b02	400961	3	practice	z	13	absent	absent	absent	no	absent	1	2000	25	25	25	25	100	33	US	Male	16	Black or African American	No	No	NA	NA
5dee933631a7e05381da6b02	403676	3	practice	z	14	circle	global	RVF	yes	present	1	677	25	25	25	25	100	33	US	Male	16	Black or African American	No	No	NA	NA
5dee933631a7e05381da6b02	407701	3	practice	z	15	absent	absent	absent	no	absent	1	2000	25	25	25	25	100	33	US	Male	16	Black or African American	No	No	NA	NA
5dee933631a7e05381da6b02	411655	3	practice	z	16	absent	absent	absent	no	absent	1	2000	25	25	25	25	100	33	US	Male	16	Black or African American	No	No	NA	NA
5dee933631a7e05381da6b02	415058	4	main	z	1	circle	local	RVF	yes	present	1	515	25	25	25	25	100	33	US	Male	16	Black or African American	No	No	NA	NA
5dee933631a7e05381da6b02	416618	4	main	z	2	square	local	RVF	yes	present	1	323	25	25	25	25	100	33	US	Male	16	Black or African American	No	No	NA	NA
5dee933631a7e05381da6b02	419696	4	main	z	3	absent	absent	absent	no	absent	1	2000	25	25	25	25	100	33	US	Male	16	Black or African American	No	No	NA	NA
5dee933631a7e05381da6b02	421074	4	main	z	4	circle	global	RVF	yes	present	1	408	25	25	25	25	100	33	US	Male	16	Black or African American	No	No	NA	NA
5dee933631a7e05381da6b02	422682	4	main	z	5	square	local	RVF	yes	present	1	515	25	25	25	25	100	33	US	Male	16	Black or African American	No	No	NA	NA
5dee933631a7e05381da6b02	424178	4	main	z	6	square	local	LVF	yes	present	1	426	25	25	25	25	100	33	US	Male	16	Black or African American	No	No	NA	NA
5dee933631a7e05381da6b02	425682	4	main	z	7	square	global	RVF	yes	present	1	479	25	25	25	25	100	33	US	Male	16	Black or African American	No	No	NA	NA
5dee933631a7e05381da6b02	427026	4	main	z	8	circle	local	LVF	yes	present	1	388	25	25	25	25	100	33	US	Male	16	Black or African American	No	No	NA	NA
5dee933631a7e05381da6b02	428354	4	main	z	9	circle	global	RVF	yes	present	1	348	25	25	25	25	100	33	US	Male	16	Black or African American	No	No	NA	NA
5dee933631a7e05381da6b02	429754	4	main	z	10	circle	local	RVF	yes	present	1	446	25	25	25	25	100	33	US	Male	16	Black or African American	No	No	NA	NA
5dee933631a7e05381da6b02	432692	4	main	z	11	absent	absent	absent	no	absent	1	2000	25	25	25	25	100	33	US	Male	16	Black or African American	No	No	NA	NA
5dee933631a7e05381da6b02	434018	4	main	z	12	circle	local	LVF	yes	present	1	391	25	25	25	25	100	33	US	Male	16	Black or African American	No	No	NA	NA
5dee933631a7e05381da6b02	436946	4	main	z	13	absent	absent	absent	no	absent	1	2000	25	25	25	25	100	33	US	Male	16	Black or African American	No	No	NA	NA
5dee933631a7e05381da6b02	438186	4	main	z	14	circle	global	LVF	yes	present	1	303	25	25	25	25	100	33	US	Male	16	Black or African American	No	No	NA	NA
5dee933631a7e05381da6b02	441134	4	main	z	15	absent	absent	absent	no	absent	1	2000	25	25	25	25	100	33	US	Male	16	Black or African American	No	No	NA	NA
5dee933631a7e05381da6b02	442330	4	main	z	16	circle	global	LVF	yes	present	1	310	25	25	25	25	100	33	US	Male	16	Black or African American	No	No	NA	NA
5dee933631a7e05381da6b02	445321	4	main	z	17	square	local	RVF	yes	absent	0	2000	25	25	25	25	100	33	US	Male	16	Black or African American	No	No	NA	NA
5dee933631a7e05381da6b02	446698	4	main	z	18	circle	global	RVF	yes	present	1	341	25	25	25	25	100	33	US	Male	16	Black or African American	No	No	NA	NA
5dee933631a7e05381da6b02	448058	4	main	z	19	square	global	RVF	yes	present	1	365	25	25	25	25	100	33	US	Male	16	Black or African American	No	No	NA	NA
5dee933631a7e05381da6b02	451094	4	main	z	20	absent	absent	absent	no	absent	1	2000	25	25	25	25	100	33	US	Male	16	Black or African American	No	No	NA	NA
5dee933631a7e05381da6b02	452266	4	main	z	21	absent	absent	absent	no	present	0	252	25	25	25	25	100	33	US	Male	16	Black or African American	No	No	NA	NA
5dee933631a7e05381da6b02	453722	4	main	z	22	square	global	LVF	yes	present	1	357	25	25	25	25	100	33	US	Male	16	Black or African American	No	No	NA	NA
5dee933631a7e05381da6b02	454978	4	main	z	23	square	local	LVF	yes	present	1	312	25	25	25	25	100	33	US	Male	16	Black or African American	No	No	NA	NA
5dee933631a7e05381da6b02	456290	4	main	z	24	square	local	LVF	yes	present	1	356	25	25	25	25	100	33	US	Male	16	Black or African American	No	No	NA	NA
5dee933631a7e05381da6b02	459202	4	main	z	25	absent	absent	absent	no	absent	1	2000	25	25	25	25	100	33	US	Male	16	Black or African American	No	No	NA	NA
5dee933631a7e05381da6b02	460418	4	main	z	26	square	local	LVF	yes	present	1	263	25	25	25	25	100	33	US	Male	16	Black or African American	No	No	NA	NA
5dee933631a7e05381da6b02	461930	4	main	z	27	circle	local	RVF	yes	present	1	440	25	25	25	25	100	33	US	Male	16	Black or African American	No	No	NA	NA
5dee933631a7e05381da6b02	463206	4	main	z	28	circle	local	LVF	yes	present	1	371	25	25	25	25	100	33	US	Male	16	Black or African American	No	No	NA	NA
5dee933631a7e05381da6b02	464418	4	main	z	29	square	global	RVF	yes	present	1	326	25	25	25	25	100	33	US	Male	16	Black or African American	No	No	NA	NA
5dee933631a7e05381da6b02	465610	4	main	z	30	circle	global	RVF	yes	present	1	283	25	25	25	25	100	33	US	Male	16	Black or African American	No	No	NA	NA
5dee933631a7e05381da6b02	466770	4	main	z	31	circle	global	LVF	yes	present	1	242	25	25	25	25	100	33	US	Male	16	Black or African American	No	No	NA	NA
5dee933631a7e05381da6b02	468034	4	main	z	32	square	local	RVF	yes	present	1	322	25	25	25	25	100	33	US	Male	16	Black or African American	No	No	NA	NA
5dee933631a7e05381da6b02	469322	4	main	z	33	circle	global	LVF	yes	present	1	392	25	25	25	25	100	33	US	Male	16	Black or African American	No	No	NA	NA
5dee933631a7e05381da6b02	470458	4	main	z	34	absent	absent	absent	no	present	0	243	25	25	25	25	100	33	US	Male	16	Black or African American	No	No	NA	NA
5dee933631a7e05381da6b02	471998	4	main	z	35	square	global	LVF	yes	present	1	371	25	25	25	25	100	33	US	Male	16	Black or African American	No	No	NA	NA
5dee933631a7e05381da6b02	473098	4	main	z	36	square	global	RVF	yes	present	1	230	25	25	25	25	100	33	US	Male	16	Black or African American	No	No	NA	NA
5dee933631a7e05381da6b02	474466	4	main	z	37	circle	local	RVF	yes	present	1	447	25	25	25	25	100	33	US	Male	16	Black or African American	No	No	NA	NA
5dee933631a7e05381da6b02	475682	4	main	z	38	circle	local	LVF	yes	present	1	295	25	25	25	25	100	33	US	Male	16	Black or African American	No	No	NA	NA
5dee933631a7e05381da6b02	476858	4	main	z	39	square	global	LVF	yes	present	1	303	25	25	25	25	100	33	US	Male	16	Black or African American	No	No	NA	NA
5dee933631a7e05381da6b02	477978	4	main	z	40	square	global	LVF	yes	present	1	222	25	25	25	25	100	33	US	Male	16	Black or African American	No	No	NA	NA
5dee933631a7e05381da6b02	479162	4	main	z	41	square	local	RVF	yes	present	1	255	25	25	25	25	100	33	US	Male	16	Black or African American	No	No	NA	NA
5dee933631a7e05381da6b02	480330	4	main	z	42	square	local	LVF	yes	present	1	255	25	25	25	25	100	33	US	Male	16	Black or African American	No	No	NA	NA
5dee933631a7e05381da6b02	481490	4	main	z	43	square	local	LVF	yes	present	1	264	25	25	25	25	100	33	US	Male	16	Black or African American	No	No	NA	NA
5dee933631a7e05381da6b02	482698	4	main	z	44	square	local	LVF	yes	present	1	305	25	25	25	25	100	33	US	Male	16	Black or African American	No	No	NA	NA
5dee933631a7e05381da6b02	483914	4	main	z	45	circle	local	RVF	yes	present	1	319	25	25	25	25	100	33	US	Male	16	Black or African American	No	No	NA	NA
5dee933631a7e05381da6b02	485123	4	main	z	46	square	local	RVF	yes	present	1	293	25	25	25	25	100	33	US	Male	16	Black or African American	No	No	NA	NA
5dee933631a7e05381da6b02	488031	4	main	z	47	absent	absent	absent	no	absent	1	2000	25	25	25	25	100	33	US	Male	16	Black or African American	No	No	NA	NA
5dee933631a7e05381da6b02	489338	4	main	z	48	circle	local	RVF	yes	present	1	337	25	25	25	25	100	33	US	Male	16	Black or African American	No	No	NA	NA
5dee933631a7e05381da6b02	490482	4	main	z	49	square	global	RVF	yes	present	1	231	25	25	25	25	100	33	US	Male	16	Black or African American	No	No	NA	NA
5dee933631a7e05381da6b02	491658	4	main	z	50	square	global	RVF	yes	present	1	239	25	25	25	25	100	33	US	Male	16	Black or African American	No	No	NA	NA
5dee933631a7e05381da6b02	492818	4	main	z	51	circle	local	RVF	yes	present	1	247	25	25	25	25	100	33	US	Male	16	Black or African American	No	No	NA	NA
5dee933631a7e05381da6b02	495721	4	main	z	52	absent	absent	absent	no	absent	1	2000	25	25	25	25	100	33	US	Male	16	Black or African American	No	No	NA	NA
5dee933631a7e05381da6b02	497042	4	main	z	53	square	local	RVF	yes	present	1	334	25	25	25	25	100	33	US	Male	16	Black or African American	No	No	NA	NA
5dee933631a7e05381da6b02	499926	4	main	z	54	absent	absent	absent	no	absent	1	2000	25	25	25	25	100	33	US	Male	16	Black or African American	No	No	NA	NA
5dee933631a7e05381da6b02	503029	4	main	z	55	absent	absent	absent	no	absent	1	2000	25	25	25	25	100	33	US	Male	16	Black or African American	No	No	NA	NA
5dee933631a7e05381da6b02	505782	4	main	z	56	absent	absent	absent	no	absent	1	2000	25	25	25	25	100	33	US	Male	16	Black or African American	No	No	NA	NA
5dee933631a7e05381da6b02	508735	4	main	z	57	absent	absent	absent	no	absent	1	2000	25	25	25	25	100	33	US	Male	16	Black or African American	No	No	NA	NA
5dee933631a7e05381da6b02	511771	4	main	z	58	absent	absent	absent	no	absent	1	2000	25	25	25	25	100	33	US	Male	16	Black or African American	No	No	NA	NA
5dee933631a7e05381da6b02	513146	4	main	z	59	circle	global	LVF	yes	present	1	355	25	25	25	25	100	33	US	Male	16	Black or African American	No	No	NA	NA
5dee933631a7e05381da6b02	514418	4	main	z	60	circle	local	RVF	yes	present	1	342	25	25	25	25	100	33	US	Male	16	Black or African American	No	No	NA	NA
5dee933631a7e05381da6b02	515642	4	main	z	61	circle	global	RVF	yes	present	1	333	25	25	25	25	100	33	US	Male	16	Black or African American	No	No	NA	NA
5dee933631a7e05381da6b02	516874	4	main	z	62	square	global	LVF	yes	present	1	363	25	25	25	25	100	33	US	Male	16	Black or African American	No	No	NA	NA
5dee933631a7e05381da6b02	517978	4	main	z	63	square	local	LVF	yes	present	1	249	25	25	25	25	100	33	US	Male	16	Black or African American	No	No	NA	NA
5dee933631a7e05381da6b02	519122	4	main	z	64	square	global	LVF	yes	present	1	226	25	25	25	25	100	33	US	Male	16	Black or African American	No	No	NA	NA
5dee933631a7e05381da6b02	520430	4	main	z	65	circle	local	LVF	yes	present	1	370	25	25	25	25	100	33	US	Male	16	Black or African American	No	No	NA	NA
5dee933631a7e05381da6b02	521530	4	main	z	66	square	local	RVF	yes	present	1	247	25	25	25	25	100	33	US	Male	16	Black or African American	No	No	NA	NA
5dee933631a7e05381da6b02	522682	4	main	z	67	circle	global	LVF	yes	present	1	231	25	25	25	25	100	33	US	Male	16	Black or African American	No	No	NA	NA
5dee933631a7e05381da6b02	523770	4	main	z	68	square	global	RVF	yes	present	1	219	25	25	25	25	100	33	US	Male	16	Black or African American	No	No	NA	NA
5dee933631a7e05381da6b02	524954	4	main	z	69	square	global	RVF	yes	present	1	269	25	25	25	25	100	33	US	Male	16	Black or African American	No	No	NA	NA
5dee933631a7e05381da6b02	526082	4	main	z	70	circle	global	LVF	yes	present	1	245	25	25	25	25	100	33	US	Male	16	Black or African American	No	No	NA	NA
5dee933631a7e05381da6b02	527210	4	main	z	71	circle	local	LVF	yes	present	1	238	25	25	25	25	100	33	US	Male	16	Black or African American	No	No	NA	NA
5dee933631a7e05381da6b02	528354	4	main	z	72	circle	local	LVF	yes	present	1	248	25	25	25	25	100	33	US	Male	16	Black or African American	No	No	NA	NA
5dee933631a7e05381da6b02	529466	4	main	z	73	square	global	LVF	yes	present	1	243	25	25	25	25	100	33	US	Male	16	Black or African American	No	No	NA	NA
5dee933631a7e05381da6b02	530570	4	main	z	74	circle	global	RVF	yes	present	1	212	25	25	25	25	100	33	US	Male	16	Black or African American	No	No	NA	NA
5dee933631a7e05381da6b02	531658	4	main	z	75	circle	global	LVF	yes	present	1	198	25	25	25	25	100	33	US	Male	16	Black or African American	No	No	NA	NA
5dee933631a7e05381da6b02	532778	4	main	z	76	circle	global	RVF	yes	present	1	234	25	25	25	25	100	33	US	Male	16	Black or African American	No	No	NA	NA
5dee933631a7e05381da6b02	533882	4	main	z	77	absent	absent	absent	no	present	0	203	25	25	25	25	100	33	US	Male	16	Black or African American	No	No	NA	NA
5dee933631a7e05381da6b02	536196	4	main	z	78	circle	global	RVF	yes	present	1	373	25	25	25	25	100	33	US	Male	16	Black or African American	No	No	NA	NA
5dee933631a7e05381da6b02	537306	4	main	z	79	circle	local	LVF	yes	present	1	257	25	25	25	25	100	33	US	Male	16	Black or African American	No	No	NA	NA
5dee933631a7e05381da6b02	538474	4	main	z	80	square	global	LVF	yes	present	1	274	25	25	25	25	100	33	US	Male	16	Black or African American	No	No	NA	NA
5e5731e3e1e8b90e25c1f3a2	334694	1	practice	z	1	absent	absent	absent	no	absent	1	2000	12.5	12.5	12.5	12.5	50	40	US	Male	16	White	No	No	NA	NA
5e5731e3e1e8b90e25c1f3a2	341687	1	practice	z	2	absent	absent	absent	no	absent	1	2000	12.5	12.5	12.5	12.5	50	40	US	Male	16	White	No	No	NA	NA
5e5731e3e1e8b90e25c1f3a2	345122	1	practice	z	3	circle	global	RVF	yes	present	1	684	12.5	12.5	12.5	12.5	50	40	US	Male	16	White	No	No	NA	NA
5e5731e3e1e8b90e25c1f3a2	348141	1	practice	z	4	circle	local	RVF	yes	present	1	821	12.5	12.5	12.5	12.5	50	40	US	Male	16	White	No	No	NA	NA
5e5731e3e1e8b90e25c1f3a2	351948	1	practice	z	5	absent	absent	absent	no	present	0	1229	12.5	12.5	12.5	12.5	50	40	US	Male	16	White	No	No	NA	NA
5e5731e3e1e8b90e25c1f3a2	355849	1	practice	z	6	circle	local	RVF	yes	present	1	1813	12.5	12.5	12.5	12.5	50	40	US	Male	16	White	No	No	NA	NA
5e5731e3e1e8b90e25c1f3a2	361325	1	practice	z	7	circle	global	RVF	yes	present	1	1639	12.5	12.5	12.5	12.5	50	40	US	Male	16	White	No	No	NA	NA
5e5731e3e1e8b90e25c1f3a2	365353	1	practice	z	8	square	local	LVF	yes	absent	0	2000	12.5	12.5	12.5	12.5	50	40	US	Male	16	White	No	No	NA	NA
5e5731e3e1e8b90e25c1f3a2	368811	1	practice	z	9	circle	global	LVF	yes	present	1	1375	12.5	12.5	12.5	12.5	50	40	US	Male	16	White	No	No	NA	NA
5e5731e3e1e8b90e25c1f3a2	372020	1	practice	z	10	square	global	LVF	yes	present	1	1000	12.5	12.5	12.5	12.5	50	40	US	Male	16	White	No	No	NA	NA
5e5731e3e1e8b90e25c1f3a2	374811	1	practice	z	11	circle	local	RVF	yes	present	1	858	12.5	12.5	12.5	12.5	50	40	US	Male	16	White	No	No	NA	NA
5e5731e3e1e8b90e25c1f3a2	378702	1	practice	z	12	square	global	RVF	yes	absent	0	2000	12.5	12.5	12.5	12.5	50	40	US	Male	16	White	No	No	NA	NA
5e5731e3e1e8b90e25c1f3a2	381887	1	practice	z	13	absent	absent	absent	no	present	0	1051	12.5	12.5	12.5	12.5	50	40	US	Male	16	White	No	No	NA	NA
5e5731e3e1e8b90e25c1f3a2	385212	1	practice	z	14	square	global	LVF	yes	present	1	843	12.5	12.5	12.5	12.5	50	40	US	Male	16	White	No	No	NA	NA
5e5731e3e1e8b90e25c1f3a2	389519	1	practice	z	15	square	local	LVF	yes	absent	0	2000	12.5	12.5	12.5	12.5	50	40	US	Male	16	White	No	No	NA	NA
5e5731e3e1e8b90e25c1f3a2	392499	1	practice	z	16	circle	global	LVF	yes	present	1	913	12.5	12.5	12.5	12.5	50	40	US	Male	16	White	No	No	NA	NA
5e5731e3e1e8b90e25c1f3a2	409013	2	main	z	1	square	local	LVF	yes	present	1	1113	12.5	12.5	12.5	12.5	50	40	US	Male	16	White	No	No	NA	NA
5e5731e3e1e8b90e25c1f3a2	411390	2	main	z	2	square	global	LVF	yes	present	1	1047	12.5	12.5	12.5	12.5	50	40	US	Male	16	White	No	No	NA	NA
5e5731e3e1e8b90e25c1f3a2	414473	2	main	z	3	circle	global	LVF	yes	present	1	1289	12.5	12.5	12.5	12.5	50	40	US	Male	16	White	No	No	NA	NA
5e5731e3e1e8b90e25c1f3a2	416787	2	main	z	4	circle	global	LVF	yes	present	1	790	12.5	12.5	12.5	12.5	50	40	US	Male	16	White	No	No	NA	NA
5e5731e3e1e8b90e25c1f3a2	419900	2	main	z	5	absent	absent	absent	no	absent	1	2000	12.5	12.5	12.5	12.5	50	40	US	Male	16	White	No	No	NA	NA
5e5731e3e1e8b90e25c1f3a2	421850	2	main	z	6	square	global	LVF	yes	present	1	817	12.5	12.5	12.5	12.5	50	40	US	Male	16	White	No	No	NA	NA
5e5731e3e1e8b90e25c1f3a2	424901	2	main	z	7	square	global	RVF	yes	absent	0	2000	12.5	12.5	12.5	12.5	50	40	US	Male	16	White	No	No	NA	NA
5e5731e3e1e8b90e25c1f3a2	426914	2	main	z	8	square	global	RVF	yes	present	1	1097	12.5	12.5	12.5	12.5	50	40	US	Male	16	White	No	No	NA	NA
5e5731e3e1e8b90e25c1f3a2	428979	2	main	z	9	square	local	RVF	yes	present	1	1046	12.5	12.5	12.5	12.5	50	40	US	Male	16	White	No	No	NA	NA
5e5731e3e1e8b90e25c1f3a2	430911	2	main	z	10	circle	local	LVF	yes	present	1	911	12.5	12.5	12.5	12.5	50	40	US	Male	16	White	No	No	NA	NA
5e5731e3e1e8b90e25c1f3a2	434117	2	main	z	11	absent	absent	absent	no	absent	1	2000	12.5	12.5	12.5	12.5	50	40	US	Male	16	White	No	No	NA	NA
5e5731e3e1e8b90e25c1f3a2	436177	2	main	z	12	circle	global	LVF	yes	present	1	927	12.5	12.5	12.5	12.5	50	40	US	Male	16	White	No	No	NA	NA
5e5731e3e1e8b90e25c1f3a2	438548	2	main	z	13	absent	absent	absent	no	present	0	1268	12.5	12.5	12.5	12.5	50	40	US	Male	16	White	No	No	NA	NA
5e5731e3e1e8b90e25c1f3a2	440641	2	main	z	14	absent	absent	absent	no	present	0	1174	12.5	12.5	12.5	12.5	50	40	US	Male	16	White	No	No	NA	NA
5e5731e3e1e8b90e25c1f3a2	443666	2	main	z	15	square	global	LVF	yes	absent	0	2000	12.5	12.5	12.5	12.5	50	40	US	Male	16	White	No	No	NA	NA
5e5731e3e1e8b90e25c1f3a2	445750	2	main	z	16	square	local	RVF	yes	present	1	1084	12.5	12.5	12.5	12.5	50	40	US	Male	16	White	No	No	NA	NA
5e5731e3e1e8b90e25c1f3a2	447772	2	main	z	17	circle	global	RVF	yes	present	1	1006	12.5	12.5	12.5	12.5	50	40	US	Male	16	White	No	No	NA	NA
5e5731e3e1e8b90e25c1f3a2	449776	2	main	z	18	circle	local	RVF	yes	present	1	893	12.5	12.5	12.5	12.5	50	40	US	Male	16	White	No	No	NA	NA
5e5731e3e1e8b90e25c1f3a2	451823	2	main	z	19	absent	absent	absent	no	present	0	1089	12.5	12.5	12.5	12.5	50	40	US	Male	16	White	No	No	NA	NA
5e5731e3e1e8b90e25c1f3a2	454783	2	main	z	20	square	local	LVF	yes	absent	0	2000	12.5	12.5	12.5	12.5	50	40	US	Male	16	White	No	No	NA	NA
5e5731e3e1e8b90e25c1f3a2	456991	2	main	z	21	circle	local	LVF	yes	present	1	859	12.5	12.5	12.5	12.5	50	40	US	Male	16	White	No	No	NA	NA
5e5731e3e1e8b90e25c1f3a2	459111	2	main	z	22	circle	global	RVF	yes	present	1	1045	12.5	12.5	12.5	12.5	50	40	US	Male	16	White	No	No	NA	NA
5e5731e3e1e8b90e25c1f3a2	461544	2	main	z	23	circle	global	RVF	yes	present	1	1462	12.5	12.5	12.5	12.5	50	40	US	Male	16	White	No	No	NA	NA
5e5731e3e1e8b90e25c1f3a2	464600	2	main	z	24	square	local	RVF	yes	absent	0	2000	12.5	12.5	12.5	12.5	50	40	US	Male	16	White	No	No	NA	NA
5e5731e3e1e8b90e25c1f3a2	467723	2	main	z	25	circle	global	RVF	yes	present	1	691	12.5	12.5	12.5	12.5	50	40	US	Male	16	White	No	No	NA	NA
5e5731e3e1e8b90e25c1f3a2	471149	2	main	z	26	absent	absent	absent	no	absent	1	2000	12.5	12.5	12.5	12.5	50	40	US	Male	16	White	No	No	NA	NA
5e5731e3e1e8b90e25c1f3a2	473152	2	main	z	27	absent	absent	absent	no	present	0	803	12.5	12.5	12.5	12.5	50	40	US	Male	16	White	No	No	NA	NA
5e5731e3e1e8b90e25c1f3a2	477616	2	main	z	28	absent	absent	absent	no	absent	1	2000	12.5	12.5	12.5	12.5	50	40	US	Male	16	White	No	No	NA	NA
5e5731e3e1e8b90e25c1f3a2	479696	2	main	z	29	square	local	LVF	yes	present	1	764	12.5	12.5	12.5	12.5	50	40	US	Male	16	White	No	No	NA	NA
5e5731e3e1e8b90e25c1f3a2	482581	2	main	z	30	square	local	RVF	yes	present	1	1766	12.5	12.5	12.5	12.5	50	40	US	Male	16	White	No	No	NA	NA
5e5731e3e1e8b90e25c1f3a2	485328	2	main	z	31	circle	global	LVF	yes	present	1	1946	12.5	12.5	12.5	12.5	50	40	US	Male	16	White	No	No	NA	NA
5e5731e3e1e8b90e25c1f3a2	488682	2	main	z	32	circle	local	LVF	yes	absent	0	2000	12.5	12.5	12.5	12.5	50	40	US	Male	16	White	No	No	NA	NA
5e5731e3e1e8b90e25c1f3a2	491682	2	main	z	33	circle	local	LVF	yes	absent	0	2000	12.5	12.5	12.5	12.5	50	40	US	Male	16	White	No	No	NA	NA
5e5731e3e1e8b90e25c1f3a2	493803	2	main	z	34	square	global	RVF	yes	present	1	721	12.5	12.5	12.5	12.5	50	40	US	Male	16	White	No	No	NA	NA
5e5731e3e1e8b90e25c1f3a2	495743	2	main	z	35	circle	local	RVF	yes	present	1	760	12.5	12.5	12.5	12.5	50	40	US	Male	16	White	No	No	NA	NA
5e5731e3e1e8b90e25c1f3a2	497684	2	main	z	36	square	global	LVF	yes	present	1	868	12.5	12.5	12.5	12.5	50	40	US	Male	16	White	No	No	NA	NA
5e5731e3e1e8b90e25c1f3a2	499645	2	main	z	37	circle	local	RVF	yes	present	1	962	12.5	12.5	12.5	12.5	50	40	US	Male	16	White	No	No	NA	NA
5e5731e3e1e8b90e25c1f3a2	501657	2	main	z	38	square	local	LVF	yes	present	1	1075	12.5	12.5	12.5	12.5	50	40	US	Male	16	White	No	No	NA	NA
5e5731e3e1e8b90e25c1f3a2	503514	2	main	z	39	square	global	RVF	yes	present	1	848	12.5	12.5	12.5	12.5	50	40	US	Male	16	White	No	No	NA	NA
5e5731e3e1e8b90e25c1f3a2	505497	2	main	z	40	circle	local	RVF	yes	present	1	981	12.5	12.5	12.5	12.5	50	40	US	Male	16	White	No	No	NA	NA
5e5731e3e1e8b90e25c1f3a2	508465	2	main	z	41	absent	absent	absent	no	absent	1	2000	12.5	12.5	12.5	12.5	50	40	US	Male	16	White	No	No	NA	NA
5e5731e3e1e8b90e25c1f3a2	510445	2	main	z	42	square	global	RVF	yes	present	1	795	12.5	12.5	12.5	12.5	50	40	US	Male	16	White	No	No	NA	NA
5e5731e3e1e8b90e25c1f3a2	512343	2	main	z	43	circle	global	RVF	yes	present	1	928	12.5	12.5	12.5	12.5	50	40	US	Male	16	White	No	No	NA	NA
5e5731e3e1e8b90e25c1f3a2	515282	2	main	z	44	circle	local	LVF	yes	absent	0	2000	12.5	12.5	12.5	12.5	50	40	US	Male	16	White	No	No	NA	NA
5e5731e3e1e8b90e25c1f3a2	518115	2	main	z	45	absent	absent	absent	no	absent	1	2000	12.5	12.5	12.5	12.5	50	40	US	Male	16	White	No	No	NA	NA
5e5731e3e1e8b90e25c1f3a2	519884	2	main	z	46	square	local	RVF	yes	present	1	720	12.5	12.5	12.5	12.5	50	40	US	Male	16	White	No	No	NA	NA
5e5731e3e1e8b90e25c1f3a2	522220	2	main	z	47	circle	global	RVF	yes	present	1	1022	12.5	12.5	12.5	12.5	50	40	US	Male	16	White	No	No	NA	NA
5e5731e3e1e8b90e25c1f3a2	524634	2	main	z	48	circle	local	LVF	yes	present	1	1270	12.5	12.5	12.5	12.5	50	40	US	Male	16	White	No	No	NA	NA
5e5731e3e1e8b90e25c1f3a2	526813	2	main	z	49	circle	global	RVF	yes	present	1	1099	12.5	12.5	12.5	12.5	50	40	US	Male	16	White	No	No	NA	NA
5e5731e3e1e8b90e25c1f3a2	529879	2	main	z	50	absent	absent	absent	no	absent	1	2000	12.5	12.5	12.5	12.5	50	40	US	Male	16	White	No	No	NA	NA
5e5731e3e1e8b90e25c1f3a2	532614	2	main	z	51	square	local	LVF	yes	present	1	1200	12.5	12.5	12.5	12.5	50	40	US	Male	16	White	No	No	NA	NA
5e5731e3e1e8b90e25c1f3a2	561216	2	main	z	52	square	local	LVF	yes	present	1	1136	12.5	12.5	12.5	12.5	50	40	US	Male	16	White	No	No	NA	NA
5e5731e3e1e8b90e25c1f3a2	564497	2	main	z	53	absent	absent	absent	no	absent	1	2000	12.5	12.5	12.5	12.5	50	40	US	Male	16	White	No	No	NA	NA
5e5731e3e1e8b90e25c1f3a2	566267	2	main	z	54	absent	absent	absent	no	present	0	736	12.5	12.5	12.5	12.5	50	40	US	Male	16	White	No	No	NA	NA
5e5731e3e1e8b90e25c1f3a2	568473	2	main	z	55	circle	local	LVF	yes	present	1	926	12.5	12.5	12.5	12.5	50	40	US	Male	16	White	No	No	NA	NA
5e5731e3e1e8b90e25c1f3a2	570682	2	main	z	56	square	global	LVF	yes	present	1	985	12.5	12.5	12.5	12.5	50	40	US	Male	16	White	No	No	NA	NA
5e5731e3e1e8b90e25c1f3a2	572821	2	main	z	57	square	local	RVF	yes	present	1	996	12.5	12.5	12.5	12.5	50	40	US	Male	16	White	No	No	NA	NA
5e5731e3e1e8b90e25c1f3a2	574878	2	main	z	58	square	global	RVF	yes	present	1	997	12.5	12.5	12.5	12.5	50	40	US	Male	16	White	No	No	NA	NA
5e5731e3e1e8b90e25c1f3a2	577914	2	main	z	59	square	local	RVF	yes	absent	0	2000	12.5	12.5	12.5	12.5	50	40	US	Male	16	White	No	No	NA	NA
5e5731e3e1e8b90e25c1f3a2	580089	2	main	z	60	circle	global	LVF	yes	present	1	959	12.5	12.5	12.5	12.5	50	40	US	Male	16	White	No	No	NA	NA
5e5731e3e1e8b90e25c1f3a2	582844	2	main	z	61	absent	absent	absent	no	present	0	1414	12.5	12.5	12.5	12.5	50	40	US	Male	16	White	No	No	NA	NA
5e5731e3e1e8b90e25c1f3a2	584672	2	main	z	62	circle	local	RVF	yes	present	1	643	12.5	12.5	12.5	12.5	50	40	US	Male	16	White	No	No	NA	NA
5e5731e3e1e8b90e25c1f3a2	587347	2	main	z	63	square	global	LVF	yes	absent	0	2000	12.5	12.5	12.5	12.5	50	40	US	Male	16	White	No	No	NA	NA
5e5731e3e1e8b90e25c1f3a2	589002	2	main	z	64	circle	local	LVF	yes	present	1	673	12.5	12.5	12.5	12.5	50	40	US	Male	16	White	No	No	NA	NA
5e5731e3e1e8b90e25c1f3a2	592347	2	main	z	65	square	local	RVF	yes	absent	0	2000	12.5	12.5	12.5	12.5	50	40	US	Male	16	White	No	No	NA	NA
5e5731e3e1e8b90e25c1f3a2	595396	2	main	z	66	square	global	RVF	yes	absent	0	2000	12.5	12.5	12.5	12.5	50	40	US	Male	16	White	No	No	NA	NA
5e5731e3e1e8b90e25c1f3a2	597729	2	main	z	67	circle	local	RVF	yes	present	1	1216	12.5	12.5	12.5	12.5	50	40	US	Male	16	White	No	No	NA	NA
5e5731e3e1e8b90e25c1f3a2	599981	2	main	z	68	circle	global	RVF	yes	present	1	1119	12.5	12.5	12.5	12.5	50	40	US	Male	16	White	No	No	NA	NA
5e5731e3e1e8b90e25c1f3a2	602203	2	main	z	69	absent	absent	absent	no	present	0	1157	12.5	12.5	12.5	12.5	50	40	US	Male	16	White	No	No	NA	NA
5e5731e3e1e8b90e25c1f3a2	605280	2	main	z	70	circle	local	RVF	yes	absent	0	2000	12.5	12.5	12.5	12.5	50	40	US	Male	16	White	No	No	NA	NA
5e5731e3e1e8b90e25c1f3a2	607273	2	main	z	71	square	local	LVF	yes	present	1	847	12.5	12.5	12.5	12.5	50	40	US	Male	16	White	No	No	NA	NA
5e5731e3e1e8b90e25c1f3a2	610763	2	main	z	72	circle	global	LVF	yes	absent	0	2000	12.5	12.5	12.5	12.5	50	40	US	Male	16	White	No	No	NA	NA
5e5731e3e1e8b90e25c1f3a2	612597	2	main	z	73	square	local	LVF	yes	present	1	401	12.5	12.5	12.5	12.5	50	40	US	Male	16	White	No	No	NA	NA
5e5731e3e1e8b90e25c1f3a2	614853	2	main	z	74	square	global	RVF	yes	present	1	672	12.5	12.5	12.5	12.5	50	40	US	Male	16	White	No	No	NA	NA
5e5731e3e1e8b90e25c1f3a2	616722	2	main	z	75	square	global	LVF	yes	present	1	846	12.5	12.5	12.5	12.5	50	40	US	Male	16	White	No	No	NA	NA
5e5731e3e1e8b90e25c1f3a2	618547	2	main	z	76	circle	global	LVF	yes	present	1	802	12.5	12.5	12.5	12.5	50	40	US	Male	16	White	No	No	NA	NA
5e5731e3e1e8b90e25c1f3a2	620471	2	main	z	77	square	global	LVF	yes	present	1	823	12.5	12.5	12.5	12.5	50	40	US	Male	16	White	No	No	NA	NA
5e5731e3e1e8b90e25c1f3a2	623449	2	main	z	78	absent	absent	absent	no	absent	1	2000	12.5	12.5	12.5	12.5	50	40	US	Male	16	White	No	No	NA	NA
5e5731e3e1e8b90e25c1f3a2	627973	2	main	z	79	circle	global	LVF	yes	present	1	1708	12.5	12.5	12.5	12.5	50	40	US	Male	16	White	No	No	NA	NA
5e5731e3e1e8b90e25c1f3a2	630343	2	main	z	80	circle	local	RVF	yes	present	1	914	12.5	12.5	12.5	12.5	50	40	US	Male	16	White	No	No	NA	NA
5e5731e3e1e8b90e25c1f3a2	778533	3	practice	slash	1	circle	local	RVF	yes	present	1	1473	12.5	12.5	12.5	12.5	50	40	US	Male	16	White	No	No	NA	NA
5e5731e3e1e8b90e25c1f3a2	781867	3	practice	slash	2	circle	local	RVF	yes	present	1	743	12.5	12.5	12.5	12.5	50	40	US	Male	16	White	No	No	NA	NA
5e5731e3e1e8b90e25c1f3a2	785224	3	practice	slash	3	circle	global	LVF	yes	present	1	898	12.5	12.5	12.5	12.5	50	40	US	Male	16	White	No	No	NA	NA
5e5731e3e1e8b90e25c1f3a2	787876	3	practice	slash	4	square	local	LVF	yes	present	1	716	12.5	12.5	12.5	12.5	50	40	US	Male	16	White	No	No	NA	NA
5e5731e3e1e8b90e25c1f3a2	791023	3	practice	slash	5	absent	absent	absent	no	present	0	946	12.5	12.5	12.5	12.5	50	40	US	Male	16	White	No	No	NA	NA
5e5731e3e1e8b90e25c1f3a2	794181	3	practice	slash	6	square	global	RVF	yes	present	1	1102	12.5	12.5	12.5	12.5	50	40	US	Male	16	White	No	No	NA	NA
5e5731e3e1e8b90e25c1f3a2	797306	3	practice	slash	7	circle	global	RVF	yes	present	1	980	12.5	12.5	12.5	12.5	50	40	US	Male	16	White	No	No	NA	NA
5e5731e3e1e8b90e25c1f3a2	800367	3	practice	slash	8	absent	absent	absent	no	present	0	1091	12.5	12.5	12.5	12.5	50	40	US	Male	16	White	No	No	NA	NA
5e5731e3e1e8b90e25c1f3a2	803311	3	practice	slash	9	absent	absent	absent	no	present	0	859	12.5	12.5	12.5	12.5	50	40	US	Male	16	White	No	No	NA	NA
5e5731e3e1e8b90e25c1f3a2	808344	3	practice	slash	10	square	global	LVF	yes	present	1	784	12.5	12.5	12.5	12.5	50	40	US	Male	16	White	No	No	NA	NA
5e5731e3e1e8b90e25c1f3a2	811554	3	practice	slash	11	circle	global	RVF	yes	present	1	995	12.5	12.5	12.5	12.5	50	40	US	Male	16	White	No	No	NA	NA
5e5731e3e1e8b90e25c1f3a2	814615	3	practice	slash	12	absent	absent	absent	no	present	0	940	12.5	12.5	12.5	12.5	50	40	US	Male	16	White	No	No	NA	NA
5e5731e3e1e8b90e25c1f3a2	818545	3	practice	slash	13	circle	global	LVF	yes	absent	0	2000	12.5	12.5	12.5	12.5	50	40	US	Male	16	White	No	No	NA	NA
5e5731e3e1e8b90e25c1f3a2	822082	3	practice	slash	14	square	global	LVF	yes	present	1	973	12.5	12.5	12.5	12.5	50	40	US	Male	16	White	No	No	NA	NA
5e5731e3e1e8b90e25c1f3a2	824872	3	practice	slash	15	circle	local	RVF	yes	present	1	680	12.5	12.5	12.5	12.5	50	40	US	Male	16	White	No	No	NA	NA
5e5731e3e1e8b90e25c1f3a2	827776	3	practice	slash	16	square	local	LVF	yes	present	1	735	12.5	12.5	12.5	12.5	50	40	US	Male	16	White	No	No	NA	NA
5e5731e3e1e8b90e25c1f3a2	920782	4	main	slash	1	absent	absent	absent	no	present	0	1977	12.5	12.5	12.5	12.5	50	40	US	Male	16	White	No	No	NA	NA
5e5731e3e1e8b90e25c1f3a2	922785	4	main	slash	2	square	local	LVF	yes	present	1	897	12.5	12.5	12.5	12.5	50	40	US	Male	16	White	No	No	NA	NA
5e5731e3e1e8b90e25c1f3a2	924547	4	main	slash	3	circle	global	RVF	yes	present	1	659	12.5	12.5	12.5	12.5	50	40	US	Male	16	White	No	No	NA	NA
5e5731e3e1e8b90e25c1f3a2	926162	4	main	slash	4	absent	absent	absent	no	present	0	707	12.5	12.5	12.5	12.5	50	40	US	Male	16	White	No	No	NA	NA
5e5731e3e1e8b90e25c1f3a2	929105	4	main	slash	5	square	global	LVF	yes	absent	0	2000	12.5	12.5	12.5	12.5	50	40	US	Male	16	White	No	No	NA	NA
5e5731e3e1e8b90e25c1f3a2	931711	4	main	slash	6	circle	global	RVF	yes	present	1	706	12.5	12.5	12.5	12.5	50	40	US	Male	16	White	No	No	NA	NA
5e5731e3e1e8b90e25c1f3a2	933649	4	main	slash	7	square	global	RVF	yes	present	1	1044	12.5	12.5	12.5	12.5	50	40	US	Male	16	White	No	No	NA	NA
5e5731e3e1e8b90e25c1f3a2	935349	4	main	slash	8	circle	global	LVF	yes	present	1	728	12.5	12.5	12.5	12.5	50	40	US	Male	16	White	No	No	NA	NA
5e5731e3e1e8b90e25c1f3a2	937235	4	main	slash	9	square	global	RVF	yes	present	1	698	12.5	12.5	12.5	12.5	50	40	US	Male	16	White	No	No	NA	NA
5e5731e3e1e8b90e25c1f3a2	940204	4	main	slash	10	absent	absent	absent	no	absent	1	2000	12.5	12.5	12.5	12.5	50	40	US	Male	16	White	No	No	NA	NA
5e5731e3e1e8b90e25c1f3a2	942565	4	main	slash	11	circle	global	RVF	yes	present	1	444	12.5	12.5	12.5	12.5	50	40	US	Male	16	White	No	No	NA	NA
5e5731e3e1e8b90e25c1f3a2	944315	4	main	slash	12	circle	local	LVF	yes	present	1	677	12.5	12.5	12.5	12.5	50	40	US	Male	16	White	No	No	NA	NA
5e5731e3e1e8b90e25c1f3a2	945951	4	main	slash	13	circle	local	RVF	yes	present	1	730	12.5	12.5	12.5	12.5	50	40	US	Male	16	White	No	No	NA	NA
5e5731e3e1e8b90e25c1f3a2	947905	4	main	slash	14	circle	local	RVF	yes	present	1	1034	12.5	12.5	12.5	12.5	50	40	US	Male	16	White	No	No	NA	NA
5e5731e3e1e8b90e25c1f3a2	951204	4	main	slash	15	absent	absent	absent	no	absent	1	2000	12.5	12.5	12.5	12.5	50	40	US	Male	16	White	No	No	NA	NA
5e5731e3e1e8b90e25c1f3a2	953198	4	main	slash	16	absent	absent	absent	no	present	0	794	12.5	12.5	12.5	12.5	50	40	US	Male	16	White	No	No	NA	NA
5e5731e3e1e8b90e25c1f3a2	954867	4	main	slash	17	circle	local	RVF	yes	present	1	713	12.5	12.5	12.5	12.5	50	40	US	Male	16	White	No	No	NA	NA
5e5731e3e1e8b90e25c1f3a2	956554	4	main	slash	18	circle	global	LVF	yes	present	1	717	12.5	12.5	12.5	12.5	50	40	US	Male	16	White	No	No	NA	NA
5e5731e3e1e8b90e25c1f3a2	958201	4	main	slash	19	square	local	RVF	yes	present	1	730	12.5	12.5	12.5	12.5	50	40	US	Male	16	White	No	No	NA	NA
5e5731e3e1e8b90e25c1f3a2	960384	4	main	slash	20	square	local	LVF	yes	present	1	1297	12.5	12.5	12.5	12.5	50	40	US	Male	16	White	No	No	NA	NA
5e5731e3e1e8b90e25c1f3a2	963538	4	main	slash	21	absent	absent	absent	no	absent	1	2000	12.5	12.5	12.5	12.5	50	40	US	Male	16	White	No	No	NA	NA
5e5731e3e1e8b90e25c1f3a2	965387	4	main	slash	22	square	global	LVF	yes	present	1	649	12.5	12.5	12.5	12.5	50	40	US	Male	16	White	No	No	NA	NA
5e5731e3e1e8b90e25c1f3a2	967170	4	main	slash	23	square	global	RVF	yes	present	1	849	12.5	12.5	12.5	12.5	50	40	US	Male	16	White	No	No	NA	NA
5e5731e3e1e8b90e25c1f3a2	969140	4	main	slash	24	circle	global	LVF	yes	present	1	1101	12.5	12.5	12.5	12.5	50	40	US	Male	16	White	No	No	NA	NA
5e5731e3e1e8b90e25c1f3a2	972005	4	main	slash	25	absent	absent	absent	no	absent	1	2000	12.5	12.5	12.5	12.5	50	40	US	Male	16	White	No	No	NA	NA
5e5731e3e1e8b90e25c1f3a2	973671	4	main	slash	26	square	global	LVF	yes	present	1	767	12.5	12.5	12.5	12.5	50	40	US	Male	16	White	No	No	NA	NA
5e5731e3e1e8b90e25c1f3a2	975444	4	main	slash	27	absent	absent	absent	no	present	0	739	12.5	12.5	12.5	12.5	50	40	US	Male	16	White	No	No	NA	NA
5e5731e3e1e8b90e25c1f3a2	977669	4	main	slash	28	square	local	LVF	yes	present	1	1182	12.5	12.5	12.5	12.5	50	40	US	Male	16	White	No	No	NA	NA
5e5731e3e1e8b90e25c1f3a2	979733	4	main	slash	29	circle	global	LVF	yes	present	1	1045	12.5	12.5	12.5	12.5	50	40	US	Male	16	White	No	No	NA	NA
5e5731e3e1e8b90e25c1f3a2	981694	4	main	slash	30	circle	local	LVF	yes	present	1	956	12.5	12.5	12.5	12.5	50	40	US	Male	16	White	No	No	NA	NA
5e5731e3e1e8b90e25c1f3a2	983697	4	main	slash	31	square	local	RVF	yes	present	1	727	12.5	12.5	12.5	12.5	50	40	US	Male	16	White	No	No	NA	NA
5e5731e3e1e8b90e25c1f3a2	986661	4	main	slash	32	square	local	LVF	yes	absent	0	2000	12.5	12.5	12.5	12.5	50	40	US	Male	16	White	No	No	NA	NA
5e5731e3e1e8b90e25c1f3a2	988833	4	main	slash	33	square	local	RVF	yes	present	1	870	12.5	12.5	12.5	12.5	50	40	US	Male	16	White	No	No	NA	NA
5e5731e3e1e8b90e25c1f3a2	990505	4	main	slash	34	circle	local	LVF	yes	present	1	684	12.5	12.5	12.5	12.5	50	40	US	Male	16	White	No	No	NA	NA
5e5731e3e1e8b90e25c1f3a2	991939	4	main	slash	35	circle	local	LVF	yes	present	1	551	12.5	12.5	12.5	12.5	50	40	US	Male	16	White	No	No	NA	NA
5e5731e3e1e8b90e25c1f3a2	994854	4	main	slash	36	square	global	RVF	yes	absent	0	2000	12.5	12.5	12.5	12.5	50	40	US	Male	16	White	No	No	NA	NA
5e5731e3e1e8b90e25c1f3a2	996963	4	main	slash	37	circle	global	RVF	yes	present	1	710	12.5	12.5	12.5	12.5	50	40	US	Male	16	White	No	No	NA	NA
5e5731e3e1e8b90e25c1f3a2	998725	4	main	slash	38	square	local	RVF	yes	present	1	822	12.5	12.5	12.5	12.5	50	40	US	Male	16	White	No	No	NA	NA
5e5731e3e1e8b90e25c1f3a2	1000414	4	main	slash	39	circle	local	RVF	yes	present	1	776	12.5	12.5	12.5	12.5	50	40	US	Male	16	White	No	No	NA	NA
5e5731e3e1e8b90e25c1f3a2	1002427	4	main	slash	40	square	global	LVF	yes	present	1	1141	12.5	12.5	12.5	12.5	50	40	US	Male	16	White	No	No	NA	NA
5e5731e3e1e8b90e25c1f3a2	1005337	4	main	slash	41	square	local	RVF	yes	absent	0	2000	12.5	12.5	12.5	12.5	50	40	US	Male	16	White	No	No	NA	NA
5e5731e3e1e8b90e25c1f3a2	1008787	4	main	slash	42	circle	local	LVF	yes	absent	0	2000	12.5	12.5	12.5	12.5	50	40	US	Male	16	White	No	No	NA	NA
5e5731e3e1e8b90e25c1f3a2	1017023	4	main	slash	43	square	local	LVF	yes	present	1	604	12.5	12.5	12.5	12.5	50	40	US	Male	16	White	No	No	NA	NA
5e5731e3e1e8b90e25c1f3a2	1018566	4	main	slash	44	circle	global	LVF	yes	present	1	563	12.5	12.5	12.5	12.5	50	40	US	Male	16	White	No	No	NA	NA
5e5731e3e1e8b90e25c1f3a2	1020339	4	main	slash	45	circle	local	LVF	yes	present	1	969	12.5	12.5	12.5	12.5	50	40	US	Male	16	White	No	No	NA	NA
5e5731e3e1e8b90e25c1f3a2	1023937	4	main	slash	46	absent	absent	absent	no	absent	1	2000	12.5	12.5	12.5	12.5	50	40	US	Male	16	White	No	No	NA	NA
5e5731e3e1e8b90e25c1f3a2	1025742	4	main	slash	47	square	local	LVF	yes	present	1	487	12.5	12.5	12.5	12.5	50	40	US	Male	16	White	No	No	NA	NA
5e5731e3e1e8b90e25c1f3a2	1027262	4	main	slash	48	absent	absent	absent	no	present	0	593	12.5	12.5	12.5	12.5	50	40	US	Male	16	White	No	No	NA	NA
5e5731e3e1e8b90e25c1f3a2	1028766	4	main	slash	49	square	global	RVF	yes	present	1	648	12.5	12.5	12.5	12.5	50	40	US	Male	16	White	No	No	NA	NA
5e5731e3e1e8b90e25c1f3a2	1031608	4	main	slash	50	absent	absent	absent	no	absent	1	2000	12.5	12.5	12.5	12.5	50	40	US	Male	16	White	No	No	NA	NA
5e5731e3e1e8b90e25c1f3a2	1033227	4	main	slash	51	square	global	LVF	yes	present	1	707	12.5	12.5	12.5	12.5	50	40	US	Male	16	White	No	No	NA	NA
5e5731e3e1e8b90e25c1f3a2	1034916	4	main	slash	52	absent	absent	absent	no	present	0	829	12.5	12.5	12.5	12.5	50	40	US	Male	16	White	No	No	NA	NA
5e5731e3e1e8b90e25c1f3a2	1036625	4	main	slash	53	circle	global	RVF	yes	present	1	888	12.5	12.5	12.5	12.5	50	40	US	Male	16	White	No	No	NA	NA
5e5731e3e1e8b90e25c1f3a2	1038155	4	main	slash	54	circle	local	RVF	yes	present	1	685	12.5	12.5	12.5	12.5	50	40	US	Male	16	White	No	No	NA	NA
5e5731e3e1e8b90e25c1f3a2	1039844	4	main	slash	55	circle	global	LVF	yes	present	1	659	12.5	12.5	12.5	12.5	50	40	US	Male	16	White	No	No	NA	NA
5e5731e3e1e8b90e25c1f3a2	1042686	4	main	slash	56	square	global	LVF	yes	absent	0	2000	12.5	12.5	12.5	12.5	50	40	US	Male	16	White	No	No	NA	NA
5e5731e3e1e8b90e25c1f3a2	1044594	4	main	slash	57	circle	global	RVF	yes	present	1	675	12.5	12.5	12.5	12.5	50	40	US	Male	16	White	No	No	NA	NA
5e5731e3e1e8b90e25c1f3a2	1046198	4	main	slash	58	square	global	LVF	yes	present	1	613	12.5	12.5	12.5	12.5	50	40	US	Male	16	White	No	No	NA	NA
5e5731e3e1e8b90e25c1f3a2	1047804	4	main	slash	59	square	global	RVF	yes	present	1	718	12.5	12.5	12.5	12.5	50	40	US	Male	16	White	No	No	NA	NA
5e5731e3e1e8b90e25c1f3a2	1050602	4	main	slash	60	square	local	LVF	yes	absent	0	2000	12.5	12.5	12.5	12.5	50	40	US	Male	16	White	No	No	NA	NA
5e5731e3e1e8b90e25c1f3a2	1053902	4	main	slash	61	square	global	RVF	yes	absent	0	2000	12.5	12.5	12.5	12.5	50	40	US	Male	16	White	No	No	NA	NA
5e5731e3e1e8b90e25c1f3a2	1055450	4	main	slash	62	circle	global	RVF	yes	present	1	365	12.5	12.5	12.5	12.5	50	40	US	Male	16	White	No	No	NA	NA
5e5731e3e1e8b90e25c1f3a2	1057295	4	main	slash	63	circle	global	LVF	yes	present	1	691	12.5	12.5	12.5	12.5	50	40	US	Male	16	White	No	No	NA	NA
5e5731e3e1e8b90e25c1f3a2	1059029	4	main	slash	64	square	local	RVF	yes	present	1	755	12.5	12.5	12.5	12.5	50	40	US	Male	16	White	No	No	NA	NA
5e5731e3e1e8b90e25c1f3a2	1060544	4	main	slash	65	square	global	LVF	yes	present	1	609	12.5	12.5	12.5	12.5	50	40	US	Male	16	White	No	No	NA	NA
5e5731e3e1e8b90e25c1f3a2	1062180	4	main	slash	66	absent	absent	absent	no	present	0	745	12.5	12.5	12.5	12.5	50	40	US	Male	16	White	No	No	NA	NA
5e5731e3e1e8b90e25c1f3a2	1065085	4	main	slash	67	circle	local	RVF	yes	absent	0	2000	12.5	12.5	12.5	12.5	50	40	US	Male	16	White	No	No	NA	NA
5e5731e3e1e8b90e25c1f3a2	1067344	4	main	slash	68	circle	global	LVF	yes	present	1	973	12.5	12.5	12.5	12.5	50	40	US	Male	16	White	No	No	NA	NA
5e5731e3e1e8b90e25c1f3a2	1069409	4	main	slash	69	circle	local	LVF	yes	present	1	674	12.5	12.5	12.5	12.5	50	40	US	Male	16	White	No	No	NA	NA
5e5731e3e1e8b90e25c1f3a2	1070999	4	main	slash	70	square	global	RVF	yes	present	1	714	12.5	12.5	12.5	12.5	50	40	US	Male	16	White	No	No	NA	NA
5e5731e3e1e8b90e25c1f3a2	1072739	4	main	slash	71	square	local	LVF	yes	present	1	888	12.5	12.5	12.5	12.5	50	40	US	Male	16	White	No	No	NA	NA
5e5731e3e1e8b90e25c1f3a2	1074495	4	main	slash	72	absent	absent	absent	no	present	0	605	12.5	12.5	12.5	12.5	50	40	US	Male	16	White	No	No	NA	NA
5e5731e3e1e8b90e25c1f3a2	1076115	4	main	slash	73	circle	global	RVF	yes	present	1	747	12.5	12.5	12.5	12.5	50	40	US	Male	16	White	No	No	NA	NA
5e5731e3e1e8b90e25c1f3a2	1077783	4	main	slash	74	circle	local	RVF	yes	present	1	782	12.5	12.5	12.5	12.5	50	40	US	Male	16	White	No	No	NA	NA
5e5731e3e1e8b90e25c1f3a2	1079307	4	main	slash	75	circle	local	RVF	yes	present	1	670	12.5	12.5	12.5	12.5	50	40	US	Male	16	White	No	No	NA	NA
5e5731e3e1e8b90e25c1f3a2	1080761	4	main	slash	76	square	local	RVF	yes	present	1	593	12.5	12.5	12.5	12.5	50	40	US	Male	16	White	No	No	NA	NA
5e5731e3e1e8b90e25c1f3a2	1083603	4	main	slash	77	absent	absent	absent	no	absent	1	2000	12.5	12.5	12.5	12.5	50	40	US	Male	16	White	No	No	NA	NA
5e5731e3e1e8b90e25c1f3a2	1085858	4	main	slash	78	circle	local	LVF	yes	present	1	772	12.5	12.5	12.5	12.5	50	40	US	Male	16	White	No	No	NA	NA
5e5731e3e1e8b90e25c1f3a2	1088785	4	main	slash	79	absent	absent	absent	no	absent	1	2000	12.5	12.5	12.5	12.5	50	40	US	Male	16	White	No	No	NA	NA
5e5731e3e1e8b90e25c1f3a2	1090365	4	main	slash	80	square	local	RVF	yes	present	1	647	12.5	12.5	12.5	12.5	50	40	US	Male	16	White	No	No	NA	NA
612d20ea1043719545f90f62	182958	1	practice	slash	1	absent	absent	absent	no	absent	1	2000	25	25	25	0	75	36	TW	Male	21	Asian	No	No	NA	NA
612d20ea1043719545f90f62	187212	1	practice	slash	2	circle	local	RVF	yes	present	1	901	25	25	25	0	75	36	TW	Male	21	Asian	No	No	NA	NA
612d20ea1043719545f90f62	192902	1	practice	slash	3	square	global	RVF	yes	present	1	1371	25	25	25	0	75	36	TW	Male	21	Asian	No	No	NA	NA
612d20ea1043719545f90f62	199122	1	practice	slash	4	circle	global	RVF	yes	present	1	1103	25	25	25	0	75	36	TW	Male	21	Asian	No	No	NA	NA
612d20ea1043719545f90f62	203972	1	practice	slash	5	absent	absent	absent	no	absent	1	2000	25	25	25	0	75	36	TW	Male	21	Asian	No	No	NA	NA
612d20ea1043719545f90f62	210209	1	practice	slash	6	absent	absent	absent	no	absent	1	2000	25	25	25	0	75	36	TW	Male	21	Asian	No	No	NA	NA
612d20ea1043719545f90f62	213791	1	practice	slash	7	square	global	LVF	yes	present	1	829	25	25	25	0	75	36	TW	Male	21	Asian	No	No	NA	NA
612d20ea1043719545f90f62	218891	1	practice	slash	8	circle	global	RVF	yes	present	1	958	25	25	25	0	75	36	TW	Male	21	Asian	No	No	NA	NA
612d20ea1043719545f90f62	222752	1	practice	slash	9	square	local	LVF	yes	present	1	799	25	25	25	0	75	36	TW	Male	21	Asian	No	No	NA	NA
612d20ea1043719545f90f62	226231	1	practice	slash	10	circle	global	LVF	yes	present	1	1027	25	25	25	0	75	36	TW	Male	21	Asian	No	No	NA	NA
612d20ea1043719545f90f62	229382	1	practice	slash	11	square	global	LVF	yes	present	1	608	25	25	25	0	75	36	TW	Male	21	Asian	No	No	NA	NA
612d20ea1043719545f90f62	233592	1	practice	slash	12	circle	local	RVF	yes	present	1	832	25	25	25	0	75	36	TW	Male	21	Asian	No	No	NA	NA
612d20ea1043719545f90f62	238129	1	practice	slash	13	absent	absent	absent	no	absent	1	2000	25	25	25	0	75	36	TW	Male	21	Asian	No	No	NA	NA
612d20ea1043719545f90f62	241071	1	practice	slash	14	circle	local	RVF	yes	present	1	990	25	25	25	0	75	36	TW	Male	21	Asian	No	No	NA	NA
612d20ea1043719545f90f62	244642	1	practice	slash	15	square	local	LVF	yes	present	1	691	25	25	25	0	75	36	TW	Male	21	Asian	No	No	NA	NA
612d20ea1043719545f90f62	248391	1	practice	slash	16	circle	global	LVF	yes	present	1	1255	25	25	25	0	75	36	TW	Male	21	Asian	No	No	NA	NA
612d20ea1043719545f90f62	256738	2	main	slash	1	square	local	RVF	yes	present	1	965	25	25	25	0	75	36	TW	Male	21	Asian	No	No	NA	NA
612d20ea1043719545f90f62	259728	2	main	slash	2	circle	global	LVF	yes	present	1	938	25	25	25	0	75	36	TW	Male	21	Asian	No	No	NA	NA
612d20ea1043719545f90f62	262848	2	main	slash	3	square	global	LVF	yes	present	1	1039	25	25	25	0	75	36	TW	Male	21	Asian	No	No	NA	NA
612d20ea1043719545f90f62	266728	2	main	slash	4	absent	absent	absent	no	absent	1	2000	25	25	25	0	75	36	TW	Male	21	Asian	No	No	NA	NA
612d20ea1043719545f90f62	269897	2	main	slash	5	absent	absent	absent	no	absent	1	2000	25	25	25	0	75	36	TW	Male	21	Asian	No	No	NA	NA
612d20ea1043719545f90f62	272368	2	main	slash	6	square	local	RVF	yes	present	1	719	25	25	25	0	75	36	TW	Male	21	Asian	No	No	NA	NA
612d20ea1043719545f90f62	275478	2	main	slash	7	square	global	RVF	yes	present	1	860	25	25	25	0	75	36	TW	Male	21	Asian	No	No	NA	NA
612d20ea1043719545f90f62	278138	2	main	slash	8	square	global	RVF	yes	present	1	818	25	25	25	0	75	36	TW	Male	21	Asian	No	No	NA	NA
612d20ea1043719545f90f62	280938	2	main	slash	9	square	local	RVF	yes	present	1	850	25	25	25	0	75	36	TW	Male	21	Asian	No	No	NA	NA
612d20ea1043719545f90f62	285207	2	main	slash	10	absent	absent	absent	no	absent	1	2000	25	25	25	0	75	36	TW	Male	21	Asian	No	No	NA	NA
612d20ea1043719545f90f62	287378	2	main	slash	11	circle	global	RVF	yes	present	1	1102	25	25	25	0	75	36	TW	Male	21	Asian	No	No	NA	NA
612d20ea1043719545f90f62	289908	2	main	slash	12	circle	global	RVF	yes	present	1	830	25	25	25	0	75	36	TW	Male	21	Asian	No	No	NA	NA
612d20ea1043719545f90f62	293168	2	main	slash	13	circle	local	RVF	yes	present	1	755	25	25	25	0	75	36	TW	Male	21	Asian	No	No	NA	NA
612d20ea1043719545f90f62	296048	2	main	slash	14	circle	local	LVF	yes	present	1	749	25	25	25	0	75	36	TW	Male	21	Asian	No	No	NA	NA
612d20ea1043719545f90f62	298708	2	main	slash	15	square	local	RVF	yes	present	1	724	25	25	25	0	75	36	TW	Male	21	Asian	No	No	NA	NA
612d20ea1043719545f90f62	301118	2	main	slash	16	square	local	LVF	yes	present	1	716	25	25	25	0	75	36	TW	Male	21	Asian	No	No	NA	NA
612d20ea1043719545f90f62	303288	2	main	slash	17	circle	local	LVF	yes	present	1	784	25	25	25	0	75	36	TW	Male	21	Asian	No	No	NA	NA
612d20ea1043719545f90f62	306008	2	main	slash	18	square	global	RVF	yes	present	1	1319	25	25	25	0	75	36	TW	Male	21	Asian	No	No	NA	NA
612d20ea1043719545f90f62	307958	2	main	slash	19	circle	global	RVF	yes	present	1	751	25	25	25	0	75	36	TW	Male	21	Asian	No	No	NA	NA
612d20ea1043719545f90f62	309999	2	main	slash	20	absent	absent	absent	no	present	0	840	25	25	25	0	75	36	TW	Male	21	Asian	No	No	NA	NA
612d20ea1043719545f90f62	311779	2	main	slash	21	circle	local	RVF	yes	present	1	702	25	25	25	0	75	36	TW	Male	21	Asian	No	No	NA	NA
612d20ea1043719545f90f62	314138	2	main	slash	22	square	global	LVF	yes	present	1	1110	25	25	25	0	75	36	TW	Male	21	Asian	No	No	NA	NA
612d20ea1043719545f90f62	315918	2	main	slash	23	square	global	RVF	yes	present	1	739	25	25	25	0	75	36	TW	Male	21	Asian	No	No	NA	NA
612d20ea1043719545f90f62	317968	2	main	slash	24	square	local	LVF	yes	present	1	1004	25	25	25	0	75	36	TW	Male	21	Asian	No	No	NA	NA
612d20ea1043719545f90f62	321049	2	main	slash	25	absent	absent	absent	no	absent	1	2000	25	25	25	0	75	36	TW	Male	21	Asian	No	No	NA	NA
612d20ea1043719545f90f62	322888	2	main	slash	26	square	global	LVF	yes	present	1	654	25	25	25	0	75	36	TW	Male	21	Asian	No	No	NA	NA
612d20ea1043719545f90f62	324869	2	main	slash	27	circle	global	LVF	yes	present	1	800	25	25	25	0	75	36	TW	Male	21	Asian	No	No	NA	NA
612d20ea1043719545f90f62	326558	2	main	slash	28	square	global	LVF	yes	present	1	638	25	25	25	0	75	36	TW	Male	21	Asian	No	No	NA	NA
612d20ea1043719545f90f62	328128	2	main	slash	29	circle	global	RVF	yes	present	1	541	25	25	25	0	75	36	TW	Male	21	Asian	No	No	NA	NA
612d20ea1043719545f90f62	331239	2	main	slash	30	absent	absent	absent	no	absent	1	2000	25	25	25	0	75	36	TW	Male	21	Asian	No	No	NA	NA
612d20ea1043719545f90f62	332838	2	main	slash	31	square	local	LVF	yes	present	1	514	25	25	25	0	75	36	TW	Male	21	Asian	No	No	NA	NA
612d20ea1043719545f90f62	334949	2	main	slash	32	circle	local	LVF	yes	present	1	1006	25	25	25	0	75	36	TW	Male	21	Asian	No	No	NA	NA
612d20ea1043719545f90f62	336692	2	main	slash	33	circle	local	RVF	yes	present	1	746	25	25	25	0	75	36	TW	Male	21	Asian	No	No	NA	NA
612d20ea1043719545f90f62	338447	2	main	slash	34	circle	local	LVF	yes	present	1	670	25	25	25	0	75	36	TW	Male	21	Asian	No	No	NA	NA
612d20ea1043719545f90f62	340399	2	main	slash	35	circle	global	LVF	yes	present	1	870	25	25	25	0	75	36	TW	Male	21	Asian	No	No	NA	NA
612d20ea1043719545f90f62	342269	2	main	slash	36	circle	local	RVF	yes	present	1	789	25	25	25	0	75	36	TW	Male	21	Asian	No	No	NA	NA
612d20ea1043719545f90f62	343960	2	main	slash	37	square	local	LVF	yes	present	1	694	25	25	25	0	75	36	TW	Male	21	Asian	No	No	NA	NA
612d20ea1043719545f90f62	346950	2	main	slash	38	absent	absent	absent	no	absent	1	2000	25	25	25	0	75	36	TW	Male	21	Asian	No	No	NA	NA
612d20ea1043719545f90f62	350036	2	main	slash	39	absent	absent	absent	no	absent	1	2000	25	25	25	0	75	36	TW	Male	21	Asian	No	No	NA	NA
612d20ea1043719545f90f62	352209	2	main	slash	40	circle	global	LVF	yes	present	1	855	25	25	25	0	75	36	TW	Male	21	Asian	No	No	NA	NA
612d20ea1043719545f90f62	353769	2	main	slash	41	circle	global	LVF	yes	present	1	514	25	25	25	0	75	36	TW	Male	21	Asian	No	No	NA	NA
612d20ea1043719545f90f62	355549	2	main	slash	42	circle	local	RVF	yes	present	1	726	25	25	25	0	75	36	TW	Male	21	Asian	No	No	NA	NA
612d20ea1043719545f90f62	357409	2	main	slash	43	circle	global	RVF	yes	present	1	852	25	25	25	0	75	36	TW	Male	21	Asian	No	No	NA	NA
612d20ea1043719545f90f62	359441	2	main	slash	44	circle	local	LVF	yes	present	1	798	25	25	25	0	75	36	TW	Male	21	Asian	No	No	NA	NA
612d20ea1043719545f90f62	360959	2	main	slash	45	circle	local	LVF	yes	present	1	532	25	25	25	0	75	36	TW	Male	21	Asian	No	No	NA	NA
612d20ea1043719545f90f62	362669	2	main	slash	46	circle	global	LVF	yes	present	1	674	25	25	25	0	75	36	TW	Male	21	Asian	No	No	NA	NA
612d20ea1043719545f90f62	364449	2	main	slash	47	square	local	RVF	yes	present	1	753	25	25	25	0	75	36	TW	Male	21	Asian	No	No	NA	NA
612d20ea1043719545f90f62	366079	2	main	slash	48	square	global	LVF	yes	present	1	632	25	25	25	0	75	36	TW	Male	21	Asian	No	No	NA	NA
612d20ea1043719545f90f62	369115	2	main	slash	49	absent	absent	absent	no	absent	1	2000	25	25	25	0	75	36	TW	Male	21	Asian	No	No	NA	NA
612d20ea1043719545f90f62	370981	2	main	slash	50	square	global	LVF	yes	present	1	662	25	25	25	0	75	36	TW	Male	21	Asian	No	No	NA	NA
612d20ea1043719545f90f62	372498	2	main	slash	51	circle	global	LVF	yes	present	1	506	25	25	25	0	75	36	TW	Male	21	Asian	No	No	NA	NA
612d20ea1043719545f90f62	374008	2	main	slash	52	circle	local	RVF	yes	present	1	523	25	25	25	0	75	36	TW	Male	21	Asian	No	No	NA	NA
612d20ea1043719545f90f62	375409	2	main	slash	53	circle	local	LVF	yes	present	1	405	25	25	25	0	75	36	TW	Male	21	Asian	No	No	NA	NA
612d20ea1043719545f90f62	378439	2	main	slash	54	absent	absent	absent	no	absent	1	2000	25	25	25	0	75	36	TW	Male	21	Asian	No	No	NA	NA
612d20ea1043719545f90f62	380259	2	main	slash	55	circle	local	RVF	yes	present	1	652	25	25	25	0	75	36	TW	Male	21	Asian	No	No	NA	NA
612d20ea1043719545f90f62	383274	2	main	slash	56	absent	absent	absent	no	absent	1	2000	25	25	25	0	75	36	TW	Male	21	Asian	No	No	NA	NA
612d20ea1043719545f90f62	385039	2	main	slash	57	square	local	RVF	yes	present	1	646	25	25	25	0	75	36	TW	Male	21	Asian	No	No	NA	NA
612d20ea1043719545f90f62	386849	2	main	slash	58	circle	global	RVF	yes	present	1	721	25	25	25	0	75	36	TW	Male	21	Asian	No	No	NA	NA
612d20ea1043719545f90f62	388450	2	main	slash	59	circle	local	LVF	yes	present	1	587	25	25	25	0	75	36	TW	Male	21	Asian	No	No	NA	NA
612d20ea1043719545f90f62	390180	2	main	slash	60	circle	global	RVF	yes	present	1	683	25	25	25	0	75	36	TW	Male	21	Asian	No	No	NA	NA
612d20ea1043719545f90f62	391889	2	main	slash	61	circle	global	LVF	yes	present	1	641	25	25	25	0	75	36	TW	Male	21	Asian	No	No	NA	NA
612d20ea1043719545f90f62	393530	2	main	slash	62	square	global	LVF	yes	present	1	613	25	25	25	0	75	36	TW	Male	21	Asian	No	No	NA	NA
612d20ea1043719545f90f62	395180	2	main	slash	63	square	global	RVF	yes	present	1	580	25	25	25	0	75	36	TW	Male	21	Asian	No	No	NA	NA
612d20ea1043719545f90f62	398218	2	main	slash	64	absent	absent	absent	no	absent	1	2000	25	25	25	0	75	36	TW	Male	21	Asian	No	No	NA	NA
612d20ea1043719545f90f62	400179	2	main	slash	65	square	local	RVF	yes	present	1	709	25	25	25	0	75	36	TW	Male	21	Asian	No	No	NA	NA
612d20ea1043719545f90f62	402450	2	main	slash	66	square	global	LVF	yes	present	1	844	25	25	25	0	75	36	TW	Male	21	Asian	No	No	NA	NA
612d20ea1043719545f90f62	404159	2	main	slash	67	square	global	RVF	yes	present	1	586	25	25	25	0	75	36	TW	Male	21	Asian	No	No	NA	NA
612d20ea1043719545f90f62	406110	2	main	slash	68	square	local	LVF	yes	present	1	819	25	25	25	0	75	36	TW	Male	21	Asian	No	No	NA	NA
612d20ea1043719545f90f62	407680	2	main	slash	69	circle	local	RVF	yes	present	1	554	25	25	25	0	75	36	TW	Male	21	Asian	No	No	NA	NA
612d20ea1043719545f90f62	410878	2	main	slash	70	absent	absent	absent	no	absent	1	2000	25	25	25	0	75	36	TW	Male	21	Asian	No	No	NA	NA
612d20ea1043719545f90f62	412769	2	main	slash	71	square	local	LVF	yes	present	1	607	25	25	25	0	75	36	TW	Male	21	Asian	No	No	NA	NA
612d20ea1043719545f90f62	414410	2	main	slash	72	square	global	RVF	yes	present	1	562	25	25	25	0	75	36	TW	Male	21	Asian	No	No	NA	NA
612d20ea1043719545f90f62	415950	2	main	slash	73	circle	global	RVF	yes	present	1	534	25	25	25	0	75	36	TW	Male	21	Asian	No	No	NA	NA
612d20ea1043719545f90f62	418229	2	main	slash	74	square	local	LVF	yes	present	1	1280	25	25	25	0	75	36	TW	Male	21	Asian	No	No	NA	NA
612d20ea1043719545f90f62	420010	2	main	slash	75	square	local	RVF	yes	present	1	659	25	25	25	0	75	36	TW	Male	21	Asian	No	No	NA	NA
612d20ea1043719545f90f62	421771	2	main	slash	76	square	local	LVF	yes	present	1	736	25	25	25	0	75	36	TW	Male	21	Asian	No	No	NA	NA
612d20ea1043719545f90f62	424770	2	main	slash	77	absent	absent	absent	no	absent	1	2000	25	25	25	0	75	36	TW	Male	21	Asian	No	No	NA	NA
612d20ea1043719545f90f62	427940	2	main	slash	78	absent	absent	absent	no	absent	1	2000	25	25	25	0	75	36	TW	Male	21	Asian	No	No	NA	NA
612d20ea1043719545f90f62	430150	2	main	slash	79	square	global	RVF	yes	present	1	1059	25	25	25	0	75	36	TW	Male	21	Asian	No	No	NA	NA
612d20ea1043719545f90f62	432160	2	main	slash	80	absent	absent	absent	no	present	0	884	25	25	25	0	75	36	TW	Male	21	Asian	No	No	NA	NA
612d20ea1043719545f90f62	458247	3	practice	z	1	absent	absent	absent	no	absent	1	2000	25	25	25	0	75	36	TW	Male	21	Asian	No	No	NA	NA
612d20ea1043719545f90f62	461164	3	practice	z	2	circle	global	RVF	yes	present	1	682	25	25	25	0	75	36	TW	Male	21	Asian	No	No	NA	NA
612d20ea1043719545f90f62	463976	3	practice	z	3	square	global	LVF	yes	present	1	641	25	25	25	0	75	36	TW	Male	21	Asian	No	No	NA	NA
612d20ea1043719545f90f62	467084	3	practice	z	4	circle	global	LVF	yes	present	1	1048	25	25	25	0	75	36	TW	Male	21	Asian	No	No	NA	NA
612d20ea1043719545f90f62	469805	3	practice	z	5	square	local	LVF	yes	present	1	616	25	25	25	0	75	36	TW	Male	21	Asian	No	No	NA	NA
612d20ea1043719545f90f62	473940	3	practice	z	6	absent	absent	absent	no	absent	1	2000	25	25	25	0	75	36	TW	Male	21	Asian	No	No	NA	NA
612d20ea1043719545f90f62	478010	3	practice	z	7	absent	absent	absent	no	absent	1	2000	25	25	25	0	75	36	TW	Male	21	Asian	No	No	NA	NA
612d20ea1043719545f90f62	480805	3	practice	z	8	square	global	RVF	yes	present	1	742	25	25	25	0	75	36	TW	Male	21	Asian	No	No	NA	NA
612d20ea1043719545f90f62	483764	3	practice	z	9	circle	global	LVF	yes	present	1	616	25	25	25	0	75	36	TW	Male	21	Asian	No	No	NA	NA
612d20ea1043719545f90f62	486795	3	practice	z	10	circle	local	RVF	yes	present	1	861	25	25	25	0	75	36	TW	Male	21	Asian	No	No	NA	NA
612d20ea1043719545f90f62	489925	3	practice	z	11	circle	local	RVF	yes	present	1	839	25	25	25	0	75	36	TW	Male	21	Asian	No	No	NA	NA
612d20ea1043719545f90f62	493393	3	practice	z	12	square	global	LVF	yes	present	1	889	25	25	25	0	75	36	TW	Male	21	Asian	No	No	NA	NA
612d20ea1043719545f90f62	496075	3	practice	z	13	circle	local	RVF	yes	present	1	601	25	25	25	0	75	36	TW	Male	21	Asian	No	No	NA	NA
612d20ea1043719545f90f62	498854	3	practice	z	14	square	local	LVF	yes	present	1	729	25	25	25	0	75	36	TW	Male	21	Asian	No	No	NA	NA
612d20ea1043719545f90f62	501694	3	practice	z	15	circle	global	RVF	yes	present	1	734	25	25	25	0	75	36	TW	Male	21	Asian	No	No	NA	NA
612d20ea1043719545f90f62	505695	3	practice	z	16	absent	absent	absent	no	absent	1	2000	25	25	25	0	75	36	TW	Male	21	Asian	No	No	NA	NA
612d20ea1043719545f90f62	525789	4	main	z	1	absent	absent	absent	no	absent	1	2000	25	25	25	0	75	36	TW	Male	21	Asian	No	No	NA	NA
