build	computer.platform	date	time	timestamp	time_elapsed_ms	subject	group	session	blockcode	blocknum	trialcode	trialnum	stimulus_left	stimulus_right	target_present	response	correct	latency
6.6.0	mac	2022-09-27	15:57:26	15:57:29	3193	1	1	1	practice_slash	1	practice_slash	1	resources/stimuli/distractor_diamondtriangles.svg	resources/stimuli/target_trianglecircles.svg	yes	53	1	267
6.6.0	mac	2022-09-27	15:57:26	15:57:31	4562	1	1	1	practice_slash	1	practice_slash	2	resources/stimuli/distractor_trianglediamonds.svg	resources/stimuli/target_diamondcircles.svg	yes	53	1	250
6.6.0	mac	2022-09-27	15:57:26	15:57:32	5951	1	1	1	practice_slash	1	practice_slash	3	resources/stimuli/target_squarediamonds.svg	resources/stimuli/distractor_diamondtriangles.svg	yes	53	1	272
6.6.0	mac	2022-09-27	15:57:26	15:57:35	9063	1	1	1	practice_slash	1	practice_slash	4	resources/stimuli/target_diamondsquares.svg	resources/stimuli/distractor_trianglediamonds.svg	no	0	1	2000
6.6.0	mac	2022-09-27	15:57:26	15:57:37	10451	1	1	1	practice_slash	1	practice_slash	5	resources/stimuli/distractor_trianglediamonds.svg	resources/stimuli/target_squarediamonds.svg	yes	53	1	268
6.6.0	mac	2022-09-27	15:57:26	15:57:40	13568	1	1	1	practice_slash	1	practice_slash	6	resources/stimuli/distractor_trianglediamonds.svg	resources/stimuli/target_circlediamonds.svg	yes	0	0	2000
6.6.0	mac	2022-09-27	15:57:26	15:57:43	16687	1	1	1	practice_slash	1	practice_slash	7	resources/stimuli/target_squarediamonds.svg	resources/stimuli/distractor_trianglediamonds.svg	yes	0	0	2000
6.6.0	mac	2022-09-27	15:57:26	15:57:46	19807	1	1	1	practice_slash	1	practice_slash	8	resources/stimuli/distractor_diamondtriangles.svg	resources/stimuli/target_diamondcircles.svg	no	0	1	2000
6.6.0	mac	2022-09-27	15:57:26	15:57:49	22926	1	1	1	practice_slash	1	practice_slash	9	resources/stimuli/distractor_diamondtriangles.svg	resources/stimuli/target_circletriangles.svg	yes	0	0	2000
6.6.0	mac	2022-09-27	15:57:26	15:57:51	24311	1	1	1	practice_slash	1	practice_slash	10	resources/stimuli/distractor_diamondtriangles.svg	resources/stimuli/distractor_trianglediamonds.svg	no	53	0	267
6.6.0	mac	2022-09-27	15:57:26	15:57:52	25684	1	1	1	practice_slash	1	practice_slash	11	resources/stimuli/distractor_trianglediamonds.svg	resources/stimuli/distractor_trianglediamonds.svg	yes	53	1	256
6.6.0	mac	2022-09-27	15:57:26	15:57:53	27064	1	1	1	practice_slash	1	practice_slash	12	resources/stimuli/target_circlediamonds.svg	resources/stimuli/distractor_trianglediamonds.svg	yes	53	1	267
6.6.0	mac	2022-09-27	15:57:26	15:57:55	28448	1	1	1	practice_slash	1	practice_slash	13	resources/stimuli/distractor_diamondtriangles.svg	resources/stimuli/distractor_diamondtriangles.svg	yes	53	1	267
6.6.0	mac	2022-09-27	15:57:26	15:57:58	31566	1	1	1	practice_slash	1	practice_slash	14	resources/stimuli/distractor_trianglediamonds.svg	resources/stimuli/distractor_diamondtriangles.svg	yes	0	0	2000
6.6.0	mac	2022-09-27	15:57:26	15:57:59	32952	1	1	1	practice_slash	1	practice_slash	15	resources/stimuli/target_diamondsquares.svg	resources/stimuli/distractor_diamondtriangles.svg	no	53	0	267
6.6.0	mac	2022-09-27	15:57:26	15:58:02	36070	1	1	1	practice_slash	1	practice_slash	16	resources/stimuli/target_circlediamonds.svg	resources/stimuli/distractor_diamondtriangles.svg	yes	0	0	2000
6.6.0	mac	2022-09-27	15:57:26	15:58:04	37819	1	1	1	main_slash	2	main_slash	1	resources/stimuli/distractor_diamondtriangles.svg	resources/stimuli/target_trianglecircles.svg	no	53	0	263
6.6.0	mac	2022-09-27	15:57:26	15:58:07	40423	1	1	1	main_slash	2	main_slash	2	resources/stimuli/distractor_diamondtriangles.svg	resources/stimuli/target_circletriangles.svg	yes	0	0	2000
6.6.0	mac	2022-09-27	15:57:26	15:58:08	41313	1	1	1	main_slash	2	main_slash	3	resources/stimuli/distractor_trianglediamonds.svg	resources/stimuli/target_diamondcircles.svg	yes	53	1	271
6.6.0	mac	2022-09-27	15:57:26	15:58:10	43925	1	1	1	main_slash	2	main_slash	4	resources/stimuli/distractor_diamondtriangles.svg	resources/stimuli/distractor_trianglediamonds.svg	yes	0	0	2000
6.6.0	mac	2022-09-27	15:57:26	15:58:13	46544	1	1	1	main_slash	2	main_slash	5	resources/stimuli/target_diamondsquares.svg	resources/stimuli/distractor_diamondtriangles.svg	no	0	1	2000
6.6.0	mac	2022-09-27	15:57:26	15:58:15	49164	1	1	1	main_slash	2	main_slash	6	resources/stimuli/distractor_trianglediamonds.svg	resources/stimuli/distractor_diamondtriangles.svg	yes	0	0	2000
6.6.0	mac	2022-09-27	15:57:26	15:58:18	51783	1	1	1	main_slash	2	main_slash	7	resources/stimuli/distractor_trianglediamonds.svg	resources/stimuli/target_squarediamonds.svg	yes	0	0	2000
6.6.0	mac	2022-09-27	15:57:26	15:58:21	54401	1	1	1	main_slash	2	main_slash	8	resources/stimuli/distractor_diamondtriangles.svg	resources/stimuli/target_diamondcircles.svg	yes	0	0	2000
6.6.0	mac	2022-09-27	15:57:26	15:58:23	57020	1	1	1	main_slash	2	main_slash	9	resources/stimuli/distractor_trianglediamonds.svg	resources/stimuli/distractor_trianglediamonds.svg	yes	0	0	2000
6.6.0	mac	2022-09-27	15:57:26	15:58:26	59639	1	1	1	main_slash	2	main_slash	10	resources/stimuli/target_squarediamonds.svg	resources/stimuli/distractor_diamondtriangles.svg	yes	0	0	2000
6.6.0	mac	2022-09-27	15:57:26	15:58:29	62257	1	1	1	main_slash	2	main_slash	11	resources/stimuli/target_squarediamonds.svg	resources/stimuli/distractor_trianglediamonds.svg	yes	0	0	2000
6.6.0	mac	2022-09-27	15:57:26	15:58:29	63150	1	1	1	main_slash	2	main_slash	12	resources/stimuli/distractor_diamondtriangles.svg	resources/stimuli/distractor_diamondtriangles.svg	yes	53	1	274
6.6.0	mac	2022-09-27	15:57:26	15:58:30	64031	1	1	1	main_slash	2	main_slash	13	resources/stimuli/target_circlediamonds.svg	resources/stimuli/distractor_diamondtriangles.svg	yes	53	1	270
6.6.0	mac	2022-09-27	15:57:26	15:58:33	66645	1	1	1	main_slash	2	main_slash	14	resources/stimuli/target_circlediamonds.svg	resources/stimuli/distractor_trianglediamonds.svg	yes	0	0	2000
6.6.0	mac	2022-09-27	15:57:26	15:58:34	67529	1	1	1	main_slash	2	main_slash	15	resources/stimuli/target_diamondsquares.svg	resources/stimuli/distractor_trianglediamonds.svg	yes	53	1	265
6.6.0	mac	2022-09-27	15:57:26	15:58:35	68414	1	1	1	main_slash	2	main_slash	16	resources/stimuli/distractor_trianglediamonds.svg	resources/stimuli/target_circlediamonds.svg	yes	53	1	266
6.6.0	mac	2022-09-27	15:57:26	15:58:36	69298	1	1	1	main_slash	2	main_slash	17	resources/stimuli/target_circlediamonds.svg	resources/stimuli/distractor_diamondtriangles.svg	yes	53	1	267
6.6.0	mac	2022-09-27	15:57:26	15:58:36	70182	1	1	1	main_slash	2	main_slash	18	resources/stimuli/distractor_trianglediamonds.svg	resources/stimuli/target_squarediamonds.svg	yes	53	1	267
6.6.0	mac	2022-09-27	15:57:26	15:58:37	71062	1	1	1	main_slash	2	main_slash	19	resources/stimuli/target_diamondsquares.svg	resources/stimuli/distractor_trianglediamonds.svg	yes	53	1	262
6.6.0	mac	2022-09-27	15:57:26	15:58:38	71934	1	1	1	main_slash	2	main_slash	20	resources/stimuli/distractor_trianglediamonds.svg	resources/stimuli/distractor_trianglediamonds.svg	yes	53	1	267
6.6.0	mac	2022-09-27	15:57:26	15:58:41	74551	1	1	1	main_slash	2	main_slash	21	resources/stimuli/distractor_trianglediamonds.svg	resources/stimuli/target_circlediamonds.svg	yes	0	0	2000
6.6.0	mac	2022-09-27	15:57:26	15:58:42	75434	1	1	1	main_slash	2	main_slash	22	resources/stimuli/target_diamondsquares.svg	resources/stimuli/distractor_diamondtriangles.svg	yes	53	1	264
6.6.0	mac	2022-09-27	15:57:26	15:58:44	78053	1	1	1	main_slash	2	main_slash	23	resources/stimuli/target_squarediamonds.svg	resources/stimuli/distractor_trianglediamonds.svg	yes	0	0	2000
6.6.0	mac	2022-09-27	15:57:26	15:58:47	80673	1	1	1	main_slash	2	main_slash	24	resources/stimuli/distractor_trianglediamonds.svg	resources/stimuli/distractor_diamondtriangles.svg	yes	0	0	2000
6.6.0	mac	2022-09-27	15:57:26	15:58:50	83292	1	1	1	main_slash	2	main_slash	25	resources/stimuli/distractor_diamondtriangles.svg	resources/stimuli/target_circletriangles.svg	yes	0	0	2000
6.6.0	mac	2022-09-27	15:57:26	15:58:50	84177	1	1	1	main_slash	2	main_slash	26	resources/stimuli/distractor_diamondtriangles.svg	resources/stimuli/target_diamondcircles.svg	yes	53	1	266
6.6.0	mac	2022-09-27	15:57:26	15:58:53	86795	1	1	1	main_slash	2	main_slash	27	resources/stimuli/target_circlediamonds.svg	resources/stimuli/distractor_trianglediamonds.svg	no	0	1	2000
6.6.0	mac	2022-09-27	15:57:26	15:58:56	89414	1	1	1	main_slash	2	main_slash	28	resources/stimuli/target_squarediamonds.svg	resources/stimuli/distractor_diamondtriangles.svg	no	0	1	2000
6.6.0	mac	2022-09-27	15:57:26	15:58:57	90301	1	1	1	main_slash	2	main_slash	29	resources/stimuli/distractor_trianglediamonds.svg	resources/stimuli/target_diamondcircles.svg	yes	53	1	268
6.6.0	mac	2022-09-27	15:57:26	15:58:59	92916	1	1	1	main_slash	2	main_slash	30	resources/stimuli/distractor_diamondtriangles.svg	resources/stimuli/target_trianglecircles.svg	yes	0	0	2000
6.6.0	mac	2022-09-27	15:57:26	15:59:00	93802	1	1	1	main_slash	2	main_slash	31	resources/stimuli/distractor_diamondtriangles.svg	resources/stimuli/distractor_trianglediamonds.svg	yes	53	1	267
6.6.0	mac	2022-09-27	15:57:26	15:59:01	94682	1	1	1	main_slash	2	main_slash	32	resources/stimuli/distractor_diamondtriangles.svg	resources/stimuli/distractor_diamondtriangles.svg	no	53	0	263
6.6.0	mac	2022-09-27	15:57:26	15:59:04	97286	1	1	1	main_slash	2	main_slash	33	resources/stimuli/target_diamondsquares.svg	resources/stimuli/distractor_diamondtriangles.svg	yes	0	0	2000
6.6.0	mac	2022-09-27	15:57:26	15:59:06	99905	1	1	1	main_slash	2	main_slash	34	resources/stimuli/distractor_trianglediamonds.svg	resources/stimuli/target_diamondcircles.svg	yes	0	0	2000
6.6.0	mac	2022-09-27	15:57:26	15:59:07	100793	1	1	1	main_slash	2	main_slash	35	resources/stimuli/target_circlediamonds.svg	resources/stimuli/distractor_trianglediamonds.svg	no	53	0	270
6.6.0	mac	2022-09-27	15:57:26	15:59:08	101674	1	1	1	main_slash	2	main_slash	36	resources/stimuli/distractor_diamondtriangles.svg	resources/stimuli/target_trianglecircles.svg	yes	53	1	267
6.6.0	mac	2022-09-27	15:57:26	15:59:11	104292	1	1	1	main_slash	2	main_slash	37	resources/stimuli/distractor_diamondtriangles.svg	resources/stimuli/target_circletriangles.svg	no	0	1	2000
6.6.0	mac	2022-09-27	15:57:26	15:59:11	105173	1	1	1	main_slash	2	main_slash	38	resources/stimuli/distractor_trianglediamonds.svg	resources/stimuli/target_circlediamonds.svg	yes	53	1	262
6.6.0	mac	2022-09-27	15:57:26	15:59:12	106045	1	1	1	main_slash	2	main_slash	39	resources/stimuli/target_diamondsquares.svg	resources/stimuli/distractor_trianglediamonds.svg	no	53	0	266
6.6.0	mac	2022-09-27	15:57:26	15:59:13	106979	1	1	1	main_slash	2	main_slash	40	resources/stimuli/distractor_diamondtriangles.svg	resources/stimuli/distractor_trianglediamonds.svg	yes	53	1	267
6.6.0	mac	2022-09-27	15:57:26	15:59:16	109597	1	1	1	main_slash	2	main_slash	41	resources/stimuli/distractor_trianglediamonds.svg	resources/stimuli/distractor_trianglediamonds.svg	yes	0	0	2000
6.6.0	mac	2022-09-27	15:57:26	15:59:17	110482	1	1	1	main_slash	2	main_slash	42	resources/stimuli/target_squarediamonds.svg	resources/stimuli/distractor_trianglediamonds.svg	no	53	0	266
6.6.0	mac	2022-09-27	15:57:26	15:59:18	111416	1	1	1	main_slash	2	main_slash	43	resources/stimuli/distractor_diamondtriangles.svg	resources/stimuli/target_diamondcircles.svg	yes	53	1	267
6.6.0	mac	2022-09-27	15:57:26	15:59:19	112305	1	1	1	main_slash	2	main_slash	44	resources/stimuli/target_squarediamonds.svg	resources/stimuli/distractor_diamondtriangles.svg	no	53	0	272
6.6.0	mac	2022-09-27	15:57:26	15:59:21	114917	1	1	1	main_slash	2	main_slash	45	resources/stimuli/distractor_trianglediamonds.svg	resources/stimuli/target_squarediamonds.svg	yes	0	0	2000
6.6.0	mac	2022-09-27	15:57:26	15:59:24	117537	1	1	1	main_slash	2	main_slash	46	resources/stimuli/distractor_diamondtriangles.svg	resources/stimuli/distractor_diamondtriangles.svg	yes	0	0	2000
6.6.0	mac	2022-09-27	15:57:26	15:59:26	120155	1	1	1	main_slash	2	main_slash	47	resources/stimuli/distractor_trianglediamonds.svg	resources/stimuli/distractor_diamondtriangles.svg	yes	0	0	2000
6.6.0	mac	2022-09-27	15:57:26	15:59:27	121034	1	1	1	main_slash	2	main_slash	48	resources/stimuli/target_circlediamonds.svg	resources/stimuli/distractor_diamondtriangles.svg	yes	53	1	260
6.6.0	mac	2022-09-27	15:57:26	15:59:30	123641	1	1	1	main_slash	2	main_slash	49	resources/stimuli/target_circlediamonds.svg	resources/stimuli/distractor_diamondtriangles.svg	yes	0	0	2000
6.6.0	mac	2022-09-27	15:57:26	15:59:31	124527	1	1	1	main_slash	2	main_slash	50	resources/stimuli/distractor_diamondtriangles.svg	resources/stimuli/distractor_trianglediamonds.svg	no	53	0	266
6.6.0	mac	2022-09-27	15:57:26	15:59:32	125416	1	1	1	main_slash	2	main_slash	51	resources/stimuli/target_circlediamonds.svg	resources/stimuli/distractor_trianglediamonds.svg	no	53	0	271
6.6.0	mac	2022-09-27	15:57:26	15:59:34	128029	1	1	1	main_slash	2	main_slash	52	resources/stimuli/distractor_trianglediamonds.svg	resources/stimuli/target_circlediamonds.svg	yes	0	0	2000
6.6.0	mac	2022-09-27	15:57:26	15:59:35	128914	1	1	1	main_slash	2	main_slash	53	resources/stimuli/distractor_trianglediamonds.svg	resources/stimuli/distractor_trianglediamonds.svg	yes	53	1	266
6.6.0	mac	2022-09-27	15:57:26	15:59:38	131532	1	1	1	main_slash	2	main_slash	54	resources/stimuli/distractor_trianglediamonds.svg	resources/stimuli/distractor_diamondtriangles.svg	yes	0	0	2000
6.6.0	mac	2022-09-27	15:57:26	15:59:39	132412	1	1	1	main_slash	2	main_slash	55	resources/stimuli/distractor_diamondtriangles.svg	resources/stimuli/target_circletriangles.svg	yes	53	1	262
6.6.0	mac	2022-09-27	15:57:26	15:59:40	133284	1	1	1	main_slash	2	main_slash	56	resources/stimuli/target_squarediamonds.svg	resources/stimuli/distractor_trianglediamonds.svg	no	53	0	267
6.6.0	mac	2022-09-27	15:57:26	15:59:40	134212	1	1	1	main_slash	2	main_slash	57	resources/stimuli/distractor_diamondtriangles.svg	resources/stimuli/target_diamondcircles.svg	yes	53	1	260
6.6.0	mac	2022-09-27	15:57:26	15:59:43	136819	1	1	1	main_slash	2	main_slash	58	resources/stimuli/distractor_diamondtriangles.svg	resources/stimuli/target_trianglecircles.svg	yes	0	0	2000
6.6.0	mac	2022-09-27	15:57:26	15:59:46	139438	1	1	1	main_slash	2	main_slash	59	resources/stimuli/distractor_trianglediamonds.svg	resources/stimuli/target_squarediamonds.svg	yes	0	0	2000
6.6.0	mac	2022-09-27	15:57:26	15:59:47	140323	1	1	1	main_slash	2	main_slash	60	resources/stimuli/target_diamondsquares.svg	resources/stimuli/distractor_trianglediamonds.svg	yes	53	1	268
6.6.0	mac	2022-09-27	15:57:26	15:59:47	141208	1	1	1	main_slash	2	main_slash	61	resources/stimuli/target_diamondsquares.svg	resources/stimuli/distractor_diamondtriangles.svg	yes	53	1	267
6.6.0	mac	2022-09-27	15:57:26	15:59:50	143825	1	1	1	main_slash	2	main_slash	62	resources/stimuli/distractor_diamondtriangles.svg	resources/stimuli/distractor_diamondtriangles.svg	yes	0	0	2000
6.6.0	mac	2022-09-27	15:57:26	15:59:51	144706	1	1	1	main_slash	2	main_slash	63	resources/stimuli/distractor_trianglediamonds.svg	resources/stimuli/target_diamondcircles.svg	yes	53	1	263
6.6.0	mac	2022-09-27	15:57:26	15:59:52	145579	1	1	1	main_slash	2	main_slash	64	resources/stimuli/target_squarediamonds.svg	resources/stimuli/distractor_diamondtriangles.svg	yes	53	1	268
6.6.0	mac	2022-09-27	15:57:26	15:59:53	146462	1	1	1	main_slash	2	main_slash	65	resources/stimuli/distractor_trianglediamonds.svg	resources/stimuli/distractor_trianglediamonds.svg	yes	53	1	267
6.6.0	mac	2022-09-27	15:57:26	15:59:54	147337	1	1	1	main_slash	2	main_slash	66	resources/stimuli/distractor_trianglediamonds.svg	resources/stimuli/distractor_diamondtriangles.svg	no	53	0	257
6.6.0	mac	2022-09-27	15:57:26	15:59:56	149947	1	1	1	main_slash	2	main_slash	67	resources/stimuli/target_circlediamonds.svg	resources/stimuli/distractor_trianglediamonds.svg	yes	0	0	2000
6.6.0	mac	2022-09-27	15:57:26	15:59:57	150832	1	1	1	main_slash	2	main_slash	68	resources/stimuli/target_squarediamonds.svg	resources/stimuli/distractor_diamondtriangles.svg	no	53	0	266
6.6.0	mac	2022-09-27	15:57:26	16:00:00	153450	1	1	1	main_slash	2	main_slash	69	resources/stimuli/distractor_diamondtriangles.svg	resources/stimuli/target_trianglecircles.svg	yes	0	0	2000
6.6.0	mac	2022-09-27	15:57:26	16:00:02	156069	1	1	1	main_slash	2	main_slash	70	resources/stimuli/distractor_diamondtriangles.svg	resources/stimuli/target_circletriangles.svg	yes	0	0	2000
6.6.0	mac	2022-09-27	15:57:26	16:00:05	158687	1	1	1	main_slash	2	main_slash	71	resources/stimuli/target_squarediamonds.svg	resources/stimuli/distractor_trianglediamonds.svg	yes	0	0	2000
6.6.0	mac	2022-09-27	15:57:26	16:00:08	161306	1	1	1	main_slash	2	main_slash	72	resources/stimuli/distractor_trianglediamonds.svg	resources/stimuli/target_circlediamonds.svg	yes	0	0	2000
6.6.0	mac	2022-09-27	15:57:26	16:00:10	163925	1	1	1	main_slash	2	main_slash	73	resources/stimuli/target_diamondsquares.svg	resources/stimuli/distractor_diamondtriangles.svg	yes	0	0	2000
6.6.0	mac	2022-09-27	15:57:26	16:00:11	164810	1	1	1	main_slash	2	main_slash	74	resources/stimuli/distractor_diamondtriangles.svg	resources/stimuli/distractor_trianglediamonds.svg	yes	53	1	267
6.6.0	mac	2022-09-27	15:57:26	16:00:12	165694	1	1	1	main_slash	2	main_slash	75	resources/stimuli/target_diamondsquares.svg	resources/stimuli/distractor_trianglediamonds.svg	yes	53	1	267
6.6.0	mac	2022-09-27	15:57:26	16:00:15	168312	1	1	1	main_slash	2	main_slash	76	resources/stimuli/distractor_diamondtriangles.svg	resources/stimuli/distractor_diamondtriangles.svg	yes	0	0	2000
6.6.0	mac	2022-09-27	15:57:26	16:00:15	169219	1	1	1	main_slash	2	main_slash	77	resources/stimuli/distractor_trianglediamonds.svg	resources/stimuli/target_squarediamonds.svg	yes	53	1	272
6.6.0	mac	2022-09-27	15:57:26	16:00:18	171832	1	1	1	main_slash	2	main_slash	78	resources/stimuli/target_circlediamonds.svg	resources/stimuli/distractor_diamondtriangles.svg	yes	0	0	2000
6.6.0	mac	2022-09-27	15:57:26	16:00:21	174450	1	1	1	main_slash	2	main_slash	79	resources/stimuli/distractor_trianglediamonds.svg	resources/stimuli/target_diamondcircles.svg	yes	0	0	2000
6.6.0	mac	2022-09-27	15:57:26	16:00:22	175336	1	1	1	main_slash	2	main_slash	80	resources/stimuli/distractor_diamondtriangles.svg	resources/stimuli/target_diamondcircles.svg	no	53	0	267
6.6.0	mac	2022-09-27	15:57:26	16:00:22	175336	1	1	1	interblock_break	3	interblock_break	1	resources/stimuli/distractor_diamondtriangles.svg	resources/stimuli/target_diamondcircles.svg	no	0	0	20000
6.6.0	mac	2022-09-27	15:57:26	16:00:46	199487	1	1	1	practice_z	4	practice_z	1	resources/stimuli/distractor_diamondtriangles.svg	resources/stimuli/target_diamondcircles.svg	yes	0	0	2000
6.6.0	mac	2022-09-27	15:57:26	16:00:47	200874	1	1	1	practice_z	4	practice_z	2	resources/stimuli/distractor_diamondtriangles.svg	resources/stimuli/target_diamondcircles.svg	yes	44	1	266
6.6.0	mac	2022-09-27	15:57:26	16:00:50	203991	1	1	1	practice_z	4	practice_z	3	resources/stimuli/distractor_diamondtriangles.svg	resources/stimuli/target_diamondcircles.svg	no	0	1	2000
6.6.0	mac	2022-09-27	15:57:26	16:00:53	207110	1	1	1	practice_z	4	practice_z	4	resources/stimuli/distractor_diamondtriangles.svg	resources/stimuli/target_diamondcircles.svg	no	0	1	2000
6.6.0	mac	2022-09-27	15:57:26	16:00:55	208488	1	1	1	practice_z	4	practice_z	5	resources/stimuli/distractor_diamondtriangles.svg	resources/stimuli/target_diamondcircles.svg	yes	44	1	259
6.6.0	mac	2022-09-27	15:57:26	16:00:58	211596	1	1	1	practice_z	4	practice_z	6	resources/stimuli/distractor_diamondtriangles.svg	resources/stimuli/target_diamondcircles.svg	yes	0	0	2000
6.6.0	mac	2022-09-27	15:57:26	16:00:59	212976	1	1	1	practice_z	4	practice_z	7	resources/stimuli/distractor_diamondtriangles.svg	resources/stimuli/target_diamondcircles.svg	no	44	0	260
6.6.0	mac	2022-09-27	15:57:26	16:01:01	214351	1	1	1	practice_z	4	practice_z	8	resources/stimuli/distractor_diamondtriangles.svg	resources/stimuli/target_diamondcircles.svg	yes	44	1	268
6.6.0	mac	2022-09-27	15:57:26	16:01:02	215736	1	1	1	practice_z	4	practice_z	9	resources/stimuli/distractor_diamondtriangles.svg	resources/stimuli/target_diamondcircles.svg	yes	44	1	266
6.6.0	mac	2022-09-27	15:57:26	16:01:05	218853	1	1	1	practice_z	4	practice_z	10	resources/stimuli/distractor_diamondtriangles.svg	resources/stimuli/target_diamondcircles.svg	yes	0	0	2000
6.6.0	mac	2022-09-27	15:57:26	16:01:08	221972	1	1	1	practice_z	4	practice_z	11	resources/stimuli/distractor_diamondtriangles.svg	resources/stimuli/target_diamondcircles.svg	yes	0	0	2000
6.6.0	mac	2022-09-27	15:57:26	16:01:10	223359	1	1	1	practice_z	4	practice_z	12	resources/stimuli/distractor_diamondtriangles.svg	resources/stimuli/target_diamondcircles.svg	yes	44	1	266
6.6.0	mac	2022-09-27	15:57:26	16:01:13	226509	1	1	1	practice_z	4	practice_z	13	resources/stimuli/distractor_diamondtriangles.svg	resources/stimuli/target_diamondcircles.svg	yes	0	0	2000
6.6.0	mac	2022-09-27	15:57:26	16:01:16	229630	1	1	1	practice_z	4	practice_z	14	resources/stimuli/distractor_diamondtriangles.svg	resources/stimuli/target_diamondcircles.svg	no	0	1	2000
6.6.0	mac	2022-09-27	15:57:26	16:01:19	232749	1	1	1	practice_z	4	practice_z	15	resources/stimuli/distractor_diamondtriangles.svg	resources/stimuli/target_diamondcircles.svg	yes	0	0	2000
6.6.0	mac	2022-09-27	15:57:26	16:01:20	234134	1	1	1	practice_z	4	practice_z	16	resources/stimuli/distractor_diamondtriangles.svg	resources/stimuli/target_diamondcircles.svg	yes	44	1	267
6.6.0	mac	2022-09-27	15:57:26	16:01:22	235886	1	1	1	main_z	5	main_slash	1	resources/stimuli/distractor_diamondtriangles.svg	resources/stimuli/distractor_trianglediamonds.svg	yes	53	1	267
6.6.0	mac	2022-09-27	15:57:26	16:01:23	236770	1	1	1	main_z	5	main_slash	2	resources/stimuli/distractor_diamondtriangles.svg	resources/stimuli/target_diamondcircles.svg	yes	53	1	267
6.6.0	mac	2022-09-27	15:57:26	16:01:24	237646	1	1	1	main_z	5	main_slash	3	resources/stimuli/distractor_trianglediamonds.svg	resources/stimuli/distractor_trianglediamonds.svg	yes	53	1	259
6.6.0	mac	2022-09-27	15:57:26	16:01:25	238513	1	1	1	main_z	5	main_slash	4	resources/stimuli/target_circlediamonds.svg	resources/stimuli/distractor_trianglediamonds.svg	yes	53	1	258
6.6.0	mac	2022-09-27	15:57:26	16:01:27	241122	1	1	1	main_z	5	main_slash	5	resources/stimuli/target_diamondsquares.svg	resources/stimuli/distractor_diamondtriangles.svg	yes	0	0	2000
6.6.0	mac	2022-09-27	15:57:26	16:01:30	243741	1	1	1	main_z	5	main_slash	6	resources/stimuli/target_diamondsquares.svg	resources/stimuli/distractor_trianglediamonds.svg	no	0	1	2000
6.6.0	mac	2022-09-27	15:57:26	16:01:33	246360	1	1	1	main_z	5	main_slash	7	resources/stimuli/distractor_trianglediamonds.svg	resources/stimuli/target_circlediamonds.svg	yes	0	0	2000
6.6.0	mac	2022-09-27	15:57:26	16:01:34	247252	1	1	1	main_z	5	main_slash	8	resources/stimuli/target_circlediamonds.svg	resources/stimuli/distractor_diamondtriangles.svg	yes	53	1	273
6.6.0	mac	2022-09-27	15:57:26	16:01:34	248129	1	1	1	main_z	5	main_slash	9	resources/stimuli/distractor_diamondtriangles.svg	resources/stimuli/target_circletriangles.svg	no	53	0	266
6.6.0	mac	2022-09-27	15:57:26	16:01:35	249013	1	1	1	main_z	5	main_slash	10	resources/stimuli/distractor_trianglediamonds.svg	resources/stimuli/target_squarediamonds.svg	yes	53	1	266
6.6.0	mac	2022-09-27	15:57:26	16:01:36	249897	1	1	1	main_z	5	main_slash	11	resources/stimuli/distractor_diamondtriangles.svg	resources/stimuli/target_trianglecircles.svg	yes	53	1	266
6.6.0	mac	2022-09-27	15:57:26	16:01:39	252515	1	1	1	main_z	5	main_slash	12	resources/stimuli/distractor_trianglediamonds.svg	resources/stimuli/distractor_diamondtriangles.svg	yes	0	0	2000
6.6.0	mac	2022-09-27	15:57:26	16:01:40	253403	1	1	1	main_z	5	main_slash	13	resources/stimuli/distractor_diamondtriangles.svg	resources/stimuli/distractor_diamondtriangles.svg	yes	53	1	270
6.6.0	mac	2022-09-27	15:57:26	16:01:41	254279	1	1	1	main_z	5	main_slash	14	resources/stimuli/target_squarediamonds.svg	resources/stimuli/distractor_diamondtriangles.svg	yes	53	1	261
6.6.0	mac	2022-09-27	15:57:26	16:01:43	256885	1	1	1	main_z	5	main_slash	15	resources/stimuli/distractor_trianglediamonds.svg	resources/stimuli/target_diamondcircles.svg	yes	0	0	2000
6.6.0	mac	2022-09-27	15:57:26	16:01:44	257770	1	1	1	main_z	5	main_slash	16	resources/stimuli/target_squarediamonds.svg	resources/stimuli/distractor_trianglediamonds.svg	no	53	0	267
6.6.0	mac	2022-09-27	15:57:26	16:01:45	258653	1	1	1	main_z	5	main_slash	17	resources/stimuli/distractor_diamondtriangles.svg	resources/stimuli/target_trianglecircles.svg	yes	53	1	265
6.6.0	mac	2022-09-27	15:57:26	16:01:46	259537	1	1	1	main_z	5	main_slash	18	resources/stimuli/distractor_trianglediamonds.svg	resources/stimuli/target_squarediamonds.svg	yes	53	1	265
6.6.0	mac	2022-09-27	15:57:26	16:01:47	260423	1	1	1	main_z	5	main_slash	19	resources/stimuli/distractor_diamondtriangles.svg	resources/stimuli/target_diamondcircles.svg	yes	53	1	267
6.6.0	mac	2022-09-27	15:57:26	16:01:49	263040	1	1	1	main_z	5	main_slash	20	resources/stimuli/target_diamondsquares.svg	resources/stimuli/distractor_diamondtriangles.svg	yes	0	0	2000
6.6.0	mac	2022-09-27	15:57:26	16:01:52	265659	1	1	1	main_z	5	main_slash	21	resources/stimuli/distractor_trianglediamonds.svg	resources/stimuli/distractor_diamondtriangles.svg	no	0	1	2000
6.6.0	mac	2022-09-27	15:57:26	16:01:55	268278	1	1	1	main_z	5	main_slash	22	resources/stimuli/distractor_diamondtriangles.svg	resources/stimuli/distractor_trianglediamonds.svg	yes	0	0	2000
6.6.0	mac	2022-09-27	15:57:26	16:01:55	269156	1	1	1	main_z	5	main_slash	23	resources/stimuli/target_circlediamonds.svg	resources/stimuli/distractor_trianglediamonds.svg	yes	53	1	259
6.6.0	mac	2022-09-27	15:57:26	16:01:56	270030	1	1	1	main_z	5	main_slash	24	resources/stimuli/distractor_diamondtriangles.svg	resources/stimuli/distractor_diamondtriangles.svg	no	53	0	267
6.6.0	mac	2022-09-27	15:57:26	16:01:57	270914	1	1	1	main_z	5	main_slash	25	resources/stimuli/distractor_trianglediamonds.svg	resources/stimuli/target_circlediamonds.svg	yes	53	1	267
6.6.0	mac	2022-09-27	15:57:26	16:01:58	271799	1	1	1	main_z	5	main_slash	26	resources/stimuli/target_circlediamonds.svg	resources/stimuli/distractor_diamondtriangles.svg	yes	53	1	267
6.6.0	mac	2022-09-27	15:57:26	16:02:01	274416	1	1	1	main_z	5	main_slash	27	resources/stimuli/distractor_trianglediamonds.svg	resources/stimuli/target_diamondcircles.svg	yes	0	0	2000
6.6.0	mac	2022-09-27	15:57:26	16:02:02	275297	1	1	1	main_z	5	main_slash	28	resources/stimuli/target_squarediamonds.svg	resources/stimuli/distractor_diamondtriangles.svg	yes	53	1	262
6.6.0	mac	2022-09-27	15:57:26	16:02:02	276169	1	1	1	main_z	5	main_slash	29	resources/stimuli/target_diamondsquares.svg	resources/stimuli/distractor_trianglediamonds.svg	no	53	0	267
6.6.0	mac	2022-09-27	15:57:26	16:02:03	277053	1	1	1	main_z	5	main_slash	30	resources/stimuli/target_squarediamonds.svg	resources/stimuli/distractor_trianglediamonds.svg	yes	53	1	267
6.6.0	mac	2022-09-27	15:57:26	16:02:06	279671	1	1	1	main_z	5	main_slash	31	resources/stimuli/distractor_trianglediamonds.svg	resources/stimuli/distractor_trianglediamonds.svg	yes	0	0	2000
6.6.0	mac	2022-09-27	15:57:26	16:02:09	282289	1	1	1	main_z	5	main_slash	32	resources/stimuli/distractor_diamondtriangles.svg	resources/stimuli/target_circletriangles.svg	no	0	1	2000
6.6.0	mac	2022-09-27	15:57:26	16:02:09	283175	1	1	1	main_z	5	main_slash	33	resources/stimuli/distractor_diamondtriangles.svg	resources/stimuli/target_circletriangles.svg	yes	53	1	267
6.6.0	mac	2022-09-27	15:57:26	16:02:12	285942	1	1	1	main_z	5	main_slash	34	resources/stimuli/distractor_trianglediamonds.svg	resources/stimuli/target_squarediamonds.svg	yes	0	0	2000
6.6.0	mac	2022-09-27	15:57:26	16:02:15	288560	1	1	1	main_z	5	main_slash	35	resources/stimuli/distractor_diamondtriangles.svg	resources/stimuli/target_trianglecircles.svg	no	0	1	2000
6.6.0	mac	2022-09-27	15:57:26	16:02:16	289446	1	1	1	main_z	5	main_slash	36	resources/stimuli/distractor_trianglediamonds.svg	resources/stimuli/target_circlediamonds.svg	yes	53	1	267
6.6.0	mac	2022-09-27	15:57:26	16:02:18	292064	1	1	1	main_z	5	main_slash	37	resources/stimuli/target_circlediamonds.svg	resources/stimuli/distractor_diamondtriangles.svg	yes	0	0	2000
6.6.0	mac	2022-09-27	15:57:26	16:02:19	292947	1	1	1	main_z	5	main_slash	38	resources/stimuli/distractor_trianglediamonds.svg	resources/stimuli/target_diamondcircles.svg	yes	53	1	265
6.6.0	mac	2022-09-27	15:57:26	16:02:20	293835	1	1	1	main_z	5	main_slash	39	resources/stimuli/distractor_diamondtriangles.svg	resources/stimuli/distractor_diamondtriangles.svg	yes	53	1	268
6.6.0	mac	2022-09-27	15:57:26	16:02:21	294717	1	1	1	main_z	5	main_slash	40	resources/stimuli/target_squarediamonds.svg	resources/stimuli/distractor_diamondtriangles.svg	yes	53	1	267
6.6.0	mac	2022-09-27	15:57:26	16:02:22	295601	1	1	1	main_z	5	main_slash	41	resources/stimuli/target_circlediamonds.svg	resources/stimuli/distractor_trianglediamonds.svg	yes	53	1	267
6.6.0	mac	2022-09-27	15:57:26	16:02:24	298219	1	1	1	main_z	5	main_slash	42	resources/stimuli/distractor_diamondtriangles.svg	resources/stimuli/distractor_trianglediamonds.svg	yes	0	0	2000
6.6.0	mac	2022-09-27	15:57:26	16:02:25	299104	1	1	1	main_z	5	main_slash	43	resources/stimuli/target_diamondsquares.svg	resources/stimuli/distractor_trianglediamonds.svg	yes	53	1	267
6.6.0	mac	2022-09-27	15:57:26	16:02:28	301722	1	1	1	main_z	5	main_slash	44	resources/stimuli/distractor_trianglediamonds.svg	resources/stimuli/distractor_trianglediamonds.svg	yes	0	0	2000
6.6.0	mac	2022-09-27	15:57:26	16:02:29	302607	1	1	1	main_z	5	main_slash	45	resources/stimuli/distractor_diamondtriangles.svg	resources/stimuli/target_diamondcircles.svg	yes	53	1	266
6.6.0	mac	2022-09-27	15:57:26	16:02:30	303484	1	1	1	main_z	5	main_slash	46	resources/stimuli/target_squarediamonds.svg	resources/stimuli/distractor_trianglediamonds.svg	yes	53	1	259
6.6.0	mac	2022-09-27	15:57:26	16:02:32	306208	1	1	1	main_z	5	main_slash	47	resources/stimuli/distractor_trianglediamonds.svg	resources/stimuli/distractor_diamondtriangles.svg	yes	0	0	2000
6.6.0	mac	2022-09-27	15:57:26	16:02:33	307094	1	1	1	main_z	5	main_slash	48	resources/stimuli/target_diamondsquares.svg	resources/stimuli/distractor_diamondtriangles.svg	yes	53	1	266
6.6.0	mac	2022-09-27	15:57:26	16:02:36	309712	1	1	1	main_z	5	main_slash	49	resources/stimuli/distractor_trianglediamonds.svg	resources/stimuli/distractor_trianglediamonds.svg	no	0	1	2000
6.6.0	mac	2022-09-27	15:57:26	16:02:37	310597	1	1	1	main_z	5	main_slash	50	resources/stimuli/target_diamondsquares.svg	resources/stimuli/distractor_diamondtriangles.svg	yes	53	1	266
6.6.0	mac	2022-09-27	15:57:26	16:02:39	313215	1	1	1	main_z	5	main_slash	51	resources/stimuli/distractor_trianglediamonds.svg	resources/stimuli/distractor_diamondtriangles.svg	yes	0	0	2000
6.6.0	mac	2022-09-27	15:57:26	16:02:40	314118	1	1	1	main_z	5	main_slash	52	resources/stimuli/distractor_trianglediamonds.svg	resources/stimuli/target_circlediamonds.svg	no	53	0	268
6.6.0	mac	2022-09-27	15:57:26	16:02:43	316734	1	1	1	main_z	5	main_slash	53	resources/stimuli/distractor_diamondtriangles.svg	resources/stimuli/target_circletriangles.svg	yes	0	0	2000
6.6.0	mac	2022-09-27	15:57:26	16:02:46	319352	1	1	1	main_z	5	main_slash	54	resources/stimuli/distractor_diamondtriangles.svg	resources/stimuli/target_diamondcircles.svg	yes	0	0	2000
6.6.0	mac	2022-09-27	15:57:26	16:02:48	321972	1	1	1	main_z	5	main_slash	55	resources/stimuli/distractor_diamondtriangles.svg	resources/stimuli/distractor_diamondtriangles.svg	yes	0	0	2000
6.6.0	mac	2022-09-27	15:57:26	16:02:49	322857	1	1	1	main_z	5	main_slash	56	resources/stimuli/distractor_trianglediamonds.svg	resources/stimuli/target_squarediamonds.svg	yes	53	1	267
6.6.0	mac	2022-09-27	15:57:26	16:02:52	325475	1	1	1	main_z	5	main_slash	57	resources/stimuli/target_squarediamonds.svg	resources/stimuli/distractor_trianglediamonds.svg	yes	0	0	2000
6.6.0	mac	2022-09-27	15:57:26	16:02:53	326360	1	1	1	main_z	5	main_slash	58	resources/stimuli/distractor_diamondtriangles.svg	resources/stimuli/distractor_trianglediamonds.svg	yes	53	1	266
6.6.0	mac	2022-09-27	15:57:26	16:02:55	328978	1	1	1	main_z	5	main_slash	59	resources/stimuli/target_circlediamonds.svg	resources/stimuli/distractor_diamondtriangles.svg	no	0	1	2000
6.6.0	mac	2022-09-27	15:57:26	16:02:58	331597	1	1	1	main_z	5	main_slash	60	resources/stimuli/target_circlediamonds.svg	resources/stimuli/distractor_trianglediamonds.svg	no	0	1	2000
6.6.0	mac	2022-09-27	15:57:26	16:02:59	332476	1	1	1	main_z	5	main_slash	61	resources/stimuli/distractor_trianglediamonds.svg	resources/stimuli/target_diamondcircles.svg	yes	53	1	262
6.6.0	mac	2022-09-27	15:57:26	16:03:00	333354	1	1	1	main_z	5	main_slash	62	resources/stimuli/target_squarediamonds.svg	resources/stimuli/distractor_diamondtriangles.svg	yes	53	1	271
6.6.0	mac	2022-09-27	15:57:26	16:03:00	334227	1	1	1	main_z	5	main_slash	63	resources/stimuli/target_diamondsquares.svg	resources/stimuli/distractor_trianglediamonds.svg	yes	53	1	261
6.6.0	mac	2022-09-27	15:57:26	16:03:01	335101	1	1	1	main_z	5	main_slash	64	resources/stimuli/distractor_diamondtriangles.svg	resources/stimuli/target_trianglecircles.svg	yes	53	1	267
6.6.0	mac	2022-09-27	15:57:26	16:03:04	337717	1	1	1	main_z	5	main_slash	65	resources/stimuli/target_diamondsquares.svg	resources/stimuli/distractor_diamondtriangles.svg	yes	0	0	2000
6.6.0	mac	2022-09-27	15:57:26	16:03:05	338605	1	1	1	main_z	5	main_slash	66	resources/stimuli/distractor_diamondtriangles.svg	resources/stimuli/distractor_trianglediamonds.svg	yes	53	1	269
6.6.0	mac	2022-09-27	15:57:26	16:03:06	339494	1	1	1	main_z	5	main_slash	67	resources/stimuli/distractor_trianglediamonds.svg	resources/stimuli/distractor_diamondtriangles.svg	yes	53	1	274
6.6.0	mac	2022-09-27	15:57:26	16:03:08	342106	1	1	1	main_z	5	main_slash	68	resources/stimuli/distractor_trianglediamonds.svg	resources/stimuli/target_squarediamonds.svg	yes	0	0	2000
6.6.0	mac	2022-09-27	15:57:26	16:03:11	344723	1	1	1	main_z	5	main_slash	69	resources/stimuli/distractor_diamondtriangles.svg	resources/stimuli/target_diamondcircles.svg	yes	0	0	2000
6.6.0	mac	2022-09-27	15:57:26	16:03:12	345608	1	1	1	main_z	5	main_slash	70	resources/stimuli/distractor_diamondtriangles.svg	resources/stimuli/distractor_diamondtriangles.svg	no	53	0	282
6.6.0	mac	2022-09-27	15:57:26	16:03:14	348226	1	1	1	main_z	5	main_slash	71	resources/stimuli/distractor_trianglediamonds.svg	resources/stimuli/distractor_trianglediamonds.svg	no	0	1	2000
6.6.0	mac	2022-09-27	15:57:26	16:03:15	349118	1	1	1	main_z	5	main_slash	72	resources/stimuli/target_diamondsquares.svg	resources/stimuli/distractor_trianglediamonds.svg	yes	53	1	273
6.6.0	mac	2022-09-27	15:57:26	16:03:18	351729	1	1	1	main_z	5	main_slash	73	resources/stimuli/target_squarediamonds.svg	resources/stimuli/distractor_diamondtriangles.svg	no	0	1	2000
6.6.0	mac	2022-09-27	15:57:26	16:03:19	352602	1	1	1	main_z	5	main_slash	74	resources/stimuli/target_circlediamonds.svg	resources/stimuli/distractor_diamondtriangles.svg	yes	53	1	270
6.6.0	mac	2022-09-27	15:57:26	16:03:20	353485	1	1	1	main_z	5	main_slash	75	resources/stimuli/distractor_trianglediamonds.svg	resources/stimuli/target_circlediamonds.svg	no	53	0	271
6.6.0	mac	2022-09-27	15:57:26	16:03:21	354371	1	1	1	main_z	5	main_slash	76	resources/stimuli/distractor_diamondtriangles.svg	resources/stimuli/target_trianglecircles.svg	yes	53	1	271
6.6.0	mac	2022-09-27	15:57:26	16:03:22	355276	1	1	1	main_z	5	main_slash	77	resources/stimuli/target_squarediamonds.svg	resources/stimuli/distractor_trianglediamonds.svg	yes	53	1	293
6.6.0	mac	2022-09-27	15:57:26	16:03:24	357886	1	1	1	main_z	5	main_slash	78	resources/stimuli/distractor_trianglediamonds.svg	resources/stimuli/target_diamondcircles.svg	yes	0	0	2000
6.6.0	mac	2022-09-27	15:57:26	16:03:25	358787	1	1	1	main_z	5	main_slash	79	resources/stimuli/distractor_diamondtriangles.svg	resources/stimuli/target_circletriangles.svg	yes	53	1	284
6.6.0	mac	2022-09-27	15:57:26	16:03:26	359687	1	1	1	main_z	5	main_slash	80	resources/stimuli/target_circlediamonds.svg	resources/stimuli/distractor_trianglediamonds.svg	yes	53	1	282
