build	computer.platform	date	time	subject	group	session	blockcode	blocknum	trialcode	trialnum	stimulus	stimulusitem1	target_present	response	correct	latency
6.6.0	mac	2022-09-23	16:12:04	1	1	1	practice_slash	1	practice_slash	1	resources/stimuli/distractor_diamonddiamonds.svg	+	no	53	0	267
6.6.0	mac	2022-09-23	16:12:04	1	1	1	practice_slash	1	practice_slash	2	resources/stimuli/target_squaretriangle.svg	+	yes	53	1	270
6.6.0	mac	2022-09-23	16:12:04	1	1	1	practice_slash	1	practice_slash	3	resources/stimuli/distractor_diamondtriangles.svg	+	no	0	1	2000
6.6.0	mac	2022-09-23	16:12:04	1	1	1	practice_slash	1	practice_slash	4	resources/stimuli/target_diamondsquares.svg	+	yes	53	1	266
6.6.0	mac	2022-09-23	16:12:04	1	1	1	practice_slash	1	practice_slash	5	resources/stimuli/target_diamondcircles.svg	+	yes	0	0	2000
6.6.0	mac	2022-09-23	16:12:04	1	1	1	practice_slash	1	practice_slash	6	resources/stimuli/target-circlecircles.svg	+	yes	0	0	2000
6.6.0	mac	2022-09-23	16:12:04	1	1	1	practice_slash	1	practice_slash	7	resources/stimuli/target_squaresquare.svg	+	yes	53	1	267
6.6.0	mac	2022-09-23	16:12:04	1	1	1	practice_slash	1	practice_slash	8	resources/stimuli/target_circlediamonds.svg	+	yes	0	0	2000
6.6.0	mac	2022-09-23	16:12:04	1	1	1	practice_slash	1	practice_slash	9	resources/stimuli/target_squarecircle.svg	+	yes	0	0	2000
6.6.0	mac	2022-09-23	16:12:04	1	1	1	practice_slash	1	practice_slash	10	resources/stimuli/distractor_triangletriangles.svg	+	no	53	0	267
6.6.0	mac	2022-09-23	16:12:04	1	1	1	practice_slash	1	practice_slash	11	resources/stimuli/target_squarediamond.svg	+	yes	0	0	2000
6.6.0	mac	2022-09-23	16:12:04	1	1	1	practice_slash	1	practice_slash	12	resources/stimuli/target_trianglesquares.svg	+	yes	53	1	267
6.6.0	mac	2022-09-23	16:12:04	1	1	1	practice_slash	1	practice_slash	13	resources/stimuli/target_circletriangles.svg	+	yes	0	0	2000
6.6.0	mac	2022-09-23	16:12:04	1	1	1	practice_slash	1	practice_slash	14	resources/stimuli/distractor_trianglesdiamonds.svg	+	no	53	0	264
6.6.0	mac	2022-09-23	16:12:04	1	1	1	practice_slash	1	practice_slash	15	resources/stimuli/target_trianglecircles.svg	+	yes	53	1	269
6.6.0	mac	2022-09-23	16:12:04	1	1	1	practice_slash	1	practice_slash	16	resources/stimuli/target_circlesquares.svg	+	yes	53	1	267
6.6.0	mac	2022-09-23	16:12:04	1	1	1	main_slash	2	main_slash	1	resources/stimuli/target_diamondcircles.svg	+	yes	53	1	268
6.6.0	mac	2022-09-23	16:12:04	1	1	1	main_slash	2	main_slash	2	resources/stimuli/target_squarecircle.svg	+	yes	0	0	2000
6.6.0	mac	2022-09-23	16:12:04	1	1	1	main_slash	2	main_slash	3	resources/stimuli/distractor_trianglesdiamonds.svg	+	no	0	1	2000
6.6.0	mac	2022-09-23	16:12:04	1	1	1	main_slash	2	main_slash	4	resources/stimuli/target_circlesquares.svg	+	yes	0	0	2000
6.6.0	mac	2022-09-23	16:12:04	1	1	1	main_slash	2	main_slash	5	resources/stimuli/target_diamondsquares.svg	+	yes	53	1	270
6.6.0	mac	2022-09-23	16:12:04	1	1	1	main_slash	2	main_slash	6	resources/stimuli/target-circlecircles.svg	+	yes	0	0	2000
6.6.0	mac	2022-09-23	16:12:04	1	1	1	main_slash	2	main_slash	7	resources/stimuli/target_diamondsquares.svg	+	yes	53	1	262
6.6.0	mac	2022-09-23	16:12:04	1	1	1	main_slash	2	main_slash	8	resources/stimuli/target_trianglecircles.svg	+	yes	53	1	263
6.6.0	mac	2022-09-23	16:12:04	1	1	1	main_slash	2	main_slash	9	resources/stimuli/target_squaresquare.svg	+	yes	0	0	2000
6.6.0	mac	2022-09-23	16:12:04	1	1	1	main_slash	2	main_slash	10	resources/stimuli/distractor_trianglesdiamonds.svg	+	no	0	1	2000
6.6.0	mac	2022-09-23	16:12:04	1	1	1	main_slash	2	main_slash	11	resources/stimuli/target-circlecircles.svg	+	yes	0	0	2000
6.6.0	mac	2022-09-23	16:12:04	1	1	1	main_slash	2	main_slash	12	resources/stimuli/target_squaretriangle.svg	+	yes	0	0	2000
6.6.0	mac	2022-09-23	16:12:04	1	1	1	main_slash	2	main_slash	13	resources/stimuli/target_squarediamond.svg	+	yes	53	1	263
6.6.0	mac	2022-09-23	16:12:04	1	1	1	main_slash	2	main_slash	14	resources/stimuli/distractor_triangletriangles.svg	+	no	53	0	262
6.6.0	mac	2022-09-23	16:12:04	1	1	1	main_slash	2	main_slash	15	resources/stimuli/distractor_diamonddiamonds.svg	+	no	0	1	2000
6.6.0	mac	2022-09-23	16:12:04	1	1	1	main_slash	2	main_slash	16	resources/stimuli/target_diamondsquares.svg	+	yes	53	1	263
6.6.0	mac	2022-09-23	16:12:04	1	1	1	main_slash	2	main_slash	17	resources/stimuli/target_squaresquare.svg	+	yes	0	0	2000
6.6.0	mac	2022-09-23	16:12:04	1	1	1	main_slash	2	main_slash	18	resources/stimuli/target_trianglecircles.svg	+	yes	0	0	2000
6.6.0	mac	2022-09-23	16:12:04	1	1	1	main_slash	2	main_slash	19	resources/stimuli/target_squarecircle.svg	+	yes	53	1	268
6.6.0	mac	2022-09-23	16:12:04	1	1	1	main_slash	2	main_slash	20	resources/stimuli/target_circlesquares.svg	+	yes	53	1	267
6.6.0	mac	2022-09-23	16:12:04	1	1	1	main_slash	2	main_slash	21	resources/stimuli/target_circlediamonds.svg	+	yes	0	0	2000
6.6.0	mac	2022-09-23	16:12:04	1	1	1	main_slash	2	main_slash	22	resources/stimuli/target_circletriangles.svg	+	yes	53	1	267
6.6.0	mac	2022-09-23	16:12:04	1	1	1	main_slash	2	main_slash	23	resources/stimuli/target_circletriangles.svg	+	yes	0	0	2000
6.6.0	mac	2022-09-23	16:12:04	1	1	1	main_slash	2	main_slash	24	resources/stimuli/target_circlediamonds.svg	+	yes	0	0	2000
6.6.0	mac	2022-09-23	16:12:04	1	1	1	main_slash	2	main_slash	25	resources/stimuli/distractor_diamonddiamonds.svg	+	no	53	0	267
6.6.0	mac	2022-09-23	16:12:04	1	1	1	main_slash	2	main_slash	26	resources/stimuli/target_diamondcircles.svg	+	yes	53	1	266
6.6.0	mac	2022-09-23	16:12:04	1	1	1	main_slash	2	main_slash	27	resources/stimuli/target_diamondcircles.svg	+	yes	53	1	268
6.6.0	mac	2022-09-23	16:12:04	1	1	1	main_slash	2	main_slash	28	resources/stimuli/target_squarediamond.svg	+	yes	53	1	266
6.6.0	mac	2022-09-23	16:12:04	1	1	1	main_slash	2	main_slash	29	resources/stimuli/distractor_diamondtriangles.svg	+	no	53	0	267
6.6.0	mac	2022-09-23	16:12:04	1	1	1	main_slash	2	main_slash	30	resources/stimuli/target_diamondsquares.svg	+	yes	0	0	2000
6.6.0	mac	2022-09-23	16:12:04	1	1	1	main_slash	2	main_slash	31	resources/stimuli/target_circlesquares.svg	+	yes	0	0	2000
6.6.0	mac	2022-09-23	16:12:04	1	1	1	main_slash	2	main_slash	32	resources/stimuli/target-circlecircles.svg	+	yes	0	0	2000
6.6.0	mac	2022-09-23	16:12:04	1	1	1	main_slash	2	main_slash	33	resources/stimuli/target_diamondcircles.svg	+	yes	0	0	2000
6.6.0	mac	2022-09-23	16:12:04	1	1	1	main_slash	2	main_slash	34	resources/stimuli/target_squaretriangle.svg	+	yes	0	0	2000
6.6.0	mac	2022-09-23	16:12:04	1	1	1	main_slash	2	main_slash	35	resources/stimuli/distractor_triangletriangles.svg	+	no	0	1	2000
6.6.0	mac	2022-09-23	16:12:04	1	1	1	main_slash	2	main_slash	36	resources/stimuli/target_circlediamonds.svg	+	yes	0	0	2000
6.6.0	mac	2022-09-23	16:12:04	1	1	1	main_slash	2	main_slash	37	resources/stimuli/target_circletriangles.svg	+	yes	0	0	2000
6.6.0	mac	2022-09-23	16:12:04	1	1	1	main_slash	2	main_slash	38	resources/stimuli/distractor_diamondtriangles.svg	+	no	53	0	259
6.6.0	mac	2022-09-23	16:12:04	1	1	1	main_slash	2	main_slash	39	resources/stimuli/target_trianglesquares.svg	+	yes	0	0	2000
6.6.0	mac	2022-09-23	16:12:04	1	1	1	main_slash	2	main_slash	40	resources/stimuli/target_trianglesquares.svg	+	yes	0	0	2000
6.6.0	mac	2022-09-23	16:12:04	1	1	1	main_slash	3	main_slash	1	resources/stimuli/distractor_triangletriangles.svg	+	no	53	0	268
6.6.0	mac	2022-09-23	16:12:04	1	1	1	main_slash	3	main_slash	2	resources/stimuli/target_squaretriangle.svg	+	yes	0	0	2000
6.6.0	mac	2022-09-23	16:12:04	1	1	1	main_slash	3	main_slash	3	resources/stimuli/distractor_diamonddiamonds.svg	+	no	53	0	261
6.6.0	mac	2022-09-23	16:12:04	1	1	1	main_slash	3	main_slash	4	resources/stimuli/target_squarediamond.svg	+	yes	0	0	2000
6.6.0	mac	2022-09-23	16:12:04	1	1	1	main_slash	3	main_slash	5	resources/stimuli/distractor_trianglesdiamonds.svg	+	no	0	1	2000
6.6.0	mac	2022-09-23	16:12:04	1	1	1	main_slash	3	main_slash	6	resources/stimuli/target_trianglecircles.svg	+	yes	53	1	267
6.6.0	mac	2022-09-23	16:12:04	1	1	1	main_slash	3	main_slash	7	resources/stimuli/distractor_diamonddiamonds.svg	+	no	0	1	2000
6.6.0	mac	2022-09-23	16:12:04	1	1	1	main_slash	3	main_slash	8	resources/stimuli/target_diamondcircles.svg	+	yes	53	1	266
6.6.0	mac	2022-09-23	16:12:04	1	1	1	main_slash	3	main_slash	9	resources/stimuli/target_squarecircle.svg	+	yes	53	1	262
6.6.0	mac	2022-09-23	16:12:04	1	1	1	main_slash	3	main_slash	10	resources/stimuli/target-circlecircles.svg	+	yes	0	0	2000
6.6.0	mac	2022-09-23	16:12:04	1	1	1	main_slash	3	main_slash	11	resources/stimuli/target_squaresquare.svg	+	yes	53	1	264
6.6.0	mac	2022-09-23	16:12:04	1	1	1	main_slash	3	main_slash	12	resources/stimuli/target_diamondcircles.svg	+	yes	53	1	270
6.6.0	mac	2022-09-23	16:12:04	1	1	1	main_slash	3	main_slash	13	resources/stimuli/target_circlesquares.svg	+	yes	0	0	2000
6.6.0	mac	2022-09-23	16:12:04	1	1	1	main_slash	3	main_slash	14	resources/stimuli/target_diamondsquares.svg	+	yes	53	1	263
6.6.0	mac	2022-09-23	16:12:04	1	1	1	main_slash	3	main_slash	15	resources/stimuli/distractor_triangletriangles.svg	+	no	0	1	2000
6.6.0	mac	2022-09-23	16:12:04	1	1	1	main_slash	3	main_slash	16	resources/stimuli/target_circletriangles.svg	+	yes	53	1	264
6.6.0	mac	2022-09-23	16:12:04	1	1	1	main_slash	3	main_slash	17	resources/stimuli/distractor_diamondtriangles.svg	+	no	0	1	2000
6.6.0	mac	2022-09-23	16:12:04	1	1	1	main_slash	3	main_slash	18	resources/stimuli/target_diamondcircles.svg	+	yes	0	0	2000
6.6.0	mac	2022-09-23	16:12:04	1	1	1	main_slash	3	main_slash	19	resources/stimuli/target_diamondsquares.svg	+	yes	53	1	265
6.6.0	mac	2022-09-23	16:12:04	1	1	1	main_slash	3	main_slash	20	resources/stimuli/target-circlecircles.svg	+	yes	0	0	2000
6.6.0	mac	2022-09-23	16:12:04	1	1	1	main_slash	3	main_slash	21	resources/stimuli/target_trianglesquares.svg	+	yes	0	0	2000
6.6.0	mac	2022-09-23	16:12:04	1	1	1	main_slash	3	main_slash	22	resources/stimuli/target_squarecircle.svg	+	yes	53	1	266
6.6.0	mac	2022-09-23	16:12:04	1	1	1	main_slash	3	main_slash	23	resources/stimuli/target-circlecircles.svg	+	yes	0	0	2000
6.6.0	mac	2022-09-23	16:12:04	1	1	1	main_slash	3	main_slash	24	resources/stimuli/target_squaresquare.svg	+	yes	0	0	2000
6.6.0	mac	2022-09-23	16:12:04	1	1	1	main_slash	3	main_slash	25	resources/stimuli/target_diamondsquares.svg	+	yes	53	1	292
6.6.0	mac	2022-09-23	16:12:04	1	1	1	main_slash	3	main_slash	26	resources/stimuli/target_trianglecircles.svg	+	yes	0	0	2000
6.6.0	mac	2022-09-23	16:12:04	1	1	1	main_slash	3	main_slash	27	resources/stimuli/target_circlediamonds.svg	+	yes	53	1	285
6.6.0	mac	2022-09-23	16:12:04	1	1	1	main_slash	3	main_slash	28	resources/stimuli/target_squarediamond.svg	+	yes	0	0	2000
6.6.0	mac	2022-09-23	16:12:04	1	1	1	main_slash	3	main_slash	29	resources/stimuli/target_circlediamonds.svg	+	yes	0	0	2000
6.6.0	mac	2022-09-23	16:12:04	1	1	1	main_slash	3	main_slash	30	resources/stimuli/target_diamondcircles.svg	+	yes	53	1	286
6.6.0	mac	2022-09-23	16:12:04	1	1	1	main_slash	3	main_slash	31	resources/stimuli/target_circletriangles.svg	+	yes	53	1	283
6.6.0	mac	2022-09-23	16:12:04	1	1	1	main_slash	3	main_slash	32	resources/stimuli/target_circlediamonds.svg	+	yes	53	1	285
6.6.0	mac	2022-09-23	16:12:04	1	1	1	main_slash	3	main_slash	33	resources/stimuli/target_circlesquares.svg	+	yes	53	1	286
6.6.0	mac	2022-09-23	16:12:04	1	1	1	main_slash	3	main_slash	34	resources/stimuli/distractor_diamondtriangles.svg	+	no	0	1	2000
6.6.0	mac	2022-09-23	16:12:04	1	1	1	main_slash	3	main_slash	35	resources/stimuli/distractor_trianglesdiamonds.svg	+	no	0	1	2000
6.6.0	mac	2022-09-23	16:12:04	1	1	1	main_slash	3	main_slash	36	resources/stimuli/target_diamondsquares.svg	+	yes	53	1	290
6.6.0	mac	2022-09-23	16:12:04	1	1	1	main_slash	3	main_slash	37	resources/stimuli/target_circletriangles.svg	+	yes	53	1	289
6.6.0	mac	2022-09-23	16:12:04	1	1	1	main_slash	3	main_slash	38	resources/stimuli/target_circlesquares.svg	+	yes	0	0	2000
6.6.0	mac	2022-09-23	16:12:04	1	1	1	main_slash	3	main_slash	39	resources/stimuli/target_squaretriangle.svg	+	yes	0	0	2000
6.6.0	mac	2022-09-23	16:12:04	1	1	1	main_slash	3	main_slash	40	resources/stimuli/target_trianglesquares.svg	+	yes	0	0	2000
6.6.0	mac	2022-09-23	16:12:04	1	1	1	interblock_break	4	interblock_break	1	resources/stimuli/target_trianglesquares.svg	Nice job! You are halfway there. in 20 seconds, the next block will begin.	yes	0	0	20000
6.6.0	mac	2022-09-23	16:12:04	1	1	1	practice_z	5	practice_z	1	resources/stimuli/distractor_diamondtriangles.svg	+	no	44	0	290
6.6.0	mac	2022-09-23	16:12:04	1	1	1	practice_z	5	practice_z	2	resources/stimuli/target_squaretriangle.svg	+	yes	0	0	2000
6.6.0	mac	2022-09-23	16:12:04	1	1	1	practice_z	5	practice_z	3	resources/stimuli/target_diamondsquares.svg	+	yes	44	1	288
6.6.0	mac	2022-09-23	16:12:04	1	1	1	practice_z	5	practice_z	4	resources/stimuli/target_squaresquare.svg	+	yes	0	0	2000
6.6.0	mac	2022-09-23	16:12:04	1	1	1	practice_z	5	practice_z	5	resources/stimuli/target-circlecircles.svg	+	yes	44	1	289
6.6.0	mac	2022-09-23	16:12:04	1	1	1	practice_z	5	practice_z	6	resources/stimuli/target_trianglesquares.svg	+	yes	0	0	2000
6.6.0	mac	2022-09-23	16:12:04	1	1	1	practice_z	5	practice_z	7	resources/stimuli/target_diamondcircles.svg	+	yes	44	1	291
6.6.0	mac	2022-09-23	16:12:04	1	1	1	practice_z	5	practice_z	8	resources/stimuli/target_circletriangles.svg	+	yes	0	0	2000
6.6.0	mac	2022-09-23	16:12:04	1	1	1	practice_z	5	practice_z	9	resources/stimuli/distractor_diamonddiamonds.svg	+	no	44	0	290
6.6.0	mac	2022-09-23	16:12:04	1	1	1	practice_z	5	practice_z	10	resources/stimuli/target_squarecircle.svg	+	yes	44	1	292
6.6.0	mac	2022-09-23	16:12:04	1	1	1	practice_z	5	practice_z	11	resources/stimuli/target_squarediamond.svg	+	yes	0	0	2000
6.6.0	mac	2022-09-23	16:12:04	1	1	1	practice_z	5	practice_z	12	resources/stimuli/distractor_triangletriangles.svg	+	no	0	1	2000
6.6.0	mac	2022-09-23	16:12:04	1	1	1	practice_z	5	practice_z	13	resources/stimuli/target_trianglecircles.svg	+	yes	0	0	2000
6.6.0	mac	2022-09-23	16:12:04	1	1	1	practice_z	5	practice_z	14	resources/stimuli/target_circlesquares.svg	+	yes	0	0	2000
6.6.0	mac	2022-09-23	16:12:04	1	1	1	practice_z	5	practice_z	15	resources/stimuli/distractor_trianglesdiamonds.svg	+	no	0	1	2000
6.6.0	mac	2022-09-23	16:12:04	1	1	1	practice_z	5	practice_z	16	resources/stimuli/target_circlediamonds.svg	+	yes	44	1	286
6.6.0	mac	2022-09-23	16:12:04	1	1	1	main_z	6	main_z	1	resources/stimuli/target_squaresquare.svg	+	yes	53	1	292
6.6.0	mac	2022-09-23	16:12:04	1	1	1	main_z	6	main_z	2	resources/stimuli/target_diamondcircles.svg	+	yes	53	1	285
6.6.0	mac	2022-09-23	16:12:04	1	1	1	main_z	6	main_z	3	resources/stimuli/target_squarecircle.svg	+	yes	53	1	284
6.6.0	mac	2022-09-23	16:12:04	1	1	1	main_z	6	main_z	4	resources/stimuli/target_trianglecircles.svg	+	yes	53	1	291
6.6.0	mac	2022-09-23	16:12:04	1	1	1	main_z	6	main_z	5	resources/stimuli/target_circlesquares.svg	+	yes	0	0	2000
6.6.0	mac	2022-09-23	16:12:04	1	1	1	main_z	6	main_z	6	resources/stimuli/target_squarediamond.svg	+	yes	53	1	283
6.6.0	mac	2022-09-23	16:12:04	1	1	1	main_z	6	main_z	7	resources/stimuli/target_circletriangles.svg	+	yes	53	1	281
6.6.0	mac	2022-09-23	16:12:04	1	1	1	main_z	6	main_z	8	resources/stimuli/target_circlediamonds.svg	+	yes	0	0	2000
6.6.0	mac	2022-09-23	16:12:04	1	1	1	main_z	6	main_z	9	resources/stimuli/target_circletriangles.svg	+	yes	0	0	2000
6.6.0	mac	2022-09-23	16:12:04	1	1	1	main_z	6	main_z	10	resources/stimuli/target-circlecircles.svg	+	yes	0	0	2000
6.6.0	mac	2022-09-23	16:12:04	1	1	1	main_z	6	main_z	11	resources/stimuli/distractor_trianglesdiamonds.svg	+	no	53	1	289
6.6.0	mac	2022-09-23	16:12:04	1	1	1	main_z	6	main_z	12	resources/stimuli/target_diamondcircles.svg	+	yes	0	0	2000
6.6.0	mac	2022-09-23	16:12:04	1	1	1	main_z	6	main_z	13	resources/stimuli/target_squarecircle.svg	+	yes	0	0	2000
6.6.0	mac	2022-09-23	16:12:04	1	1	1	main_z	6	main_z	14	resources/stimuli/target_trianglesquares.svg	+	yes	53	1	288
6.6.0	mac	2022-09-23	16:12:04	1	1	1	main_z	6	main_z	15	resources/stimuli/target_circlesquares.svg	+	yes	0	0	2000
6.6.0	mac	2022-09-23	16:12:04	1	1	1	main_z	6	main_z	16	resources/stimuli/distractor_diamondtriangles.svg	+	no	0	1	2000
6.6.0	mac	2022-09-23	16:12:04	1	1	1	main_z	6	main_z	17	resources/stimuli/target_squaretriangle.svg	+	yes	0	0	2000
6.6.0	mac	2022-09-23	16:12:04	1	1	1	main_z	6	main_z	18	resources/stimuli/target_circlesquares.svg	+	yes	0	0	2000
6.6.0	mac	2022-09-23	16:12:04	1	1	1	main_z	6	main_z	19	resources/stimuli/target_squaretriangle.svg	+	yes	53	1	291
6.6.0	mac	2022-09-23	16:12:04	1	1	1	main_z	6	main_z	20	resources/stimuli/target_diamondsquares.svg	+	yes	0	0	2000
6.6.0	mac	2022-09-23	16:12:04	1	1	1	main_z	6	main_z	21	resources/stimuli/distractor_triangletriangles.svg	+	no	53	1	292
6.6.0	mac	2022-09-23	16:12:04	1	1	1	main_z	6	main_z	22	resources/stimuli/target_diamondcircles.svg	+	yes	0	0	2000
6.6.0	mac	2022-09-23	16:12:04	1	1	1	main_z	6	main_z	23	resources/stimuli/distractor_diamonddiamonds.svg	+	no	53	1	291
6.6.0	mac	2022-09-23	16:12:04	1	1	1	main_z	6	main_z	24	resources/stimuli/target_squaresquare.svg	+	yes	53	1	283
6.6.0	mac	2022-09-23	16:12:04	1	1	1	main_z	6	main_z	25	resources/stimuli/target_trianglesquares.svg	+	yes	0	0	2000
6.6.0	mac	2022-09-23	16:12:04	1	1	1	main_z	6	main_z	26	resources/stimuli/target_diamondsquares.svg	+	yes	53	1	291
6.6.0	mac	2022-09-23	16:12:04	1	1	1	main_z	6	main_z	27	resources/stimuli/target_circlediamonds.svg	+	yes	0	0	2000
6.6.0	mac	2022-09-23	16:12:04	1	1	1	main_z	6	main_z	28	resources/stimuli/distractor_diamonddiamonds.svg	+	no	0	1	2000
6.6.0	mac	2022-09-23	16:12:04	1	1	1	main_z	6	main_z	29	resources/stimuli/target-circlecircles.svg	+	yes	53	1	293
6.6.0	mac	2022-09-23	16:12:04	1	1	1	main_z	6	main_z	30	resources/stimuli/distractor_trianglesdiamonds.svg	+	no	0	1	2000
6.6.0	mac	2022-09-23	16:12:04	1	1	1	main_z	6	main_z	31	resources/stimuli/target_circlediamonds.svg	+	yes	53	1	293
6.6.0	mac	2022-09-23	16:12:04	1	1	1	main_z	6	main_z	32	resources/stimuli/target_trianglecircles.svg	+	yes	0	0	2000
6.6.0	mac	2022-09-23	16:12:04	1	1	1	main_z	6	main_z	33	resources/stimuli/distractor_diamondtriangles.svg	+	no	53	1	290
6.6.0	mac	2022-09-23	16:12:04	1	1	1	main_z	6	main_z	34	resources/stimuli/target_diamondcircles.svg	+	yes	53	1	285
6.6.0	mac	2022-09-23	16:12:04	1	1	1	main_z	6	main_z	35	resources/stimuli/distractor_triangletriangles.svg	+	no	0	1	2000
6.6.0	mac	2022-09-23	16:12:04	1	1	1	main_z	6	main_z	36	resources/stimuli/target_diamondsquares.svg	+	yes	0	0	2000
6.6.0	mac	2022-09-23	16:12:04	1	1	1	main_z	6	main_z	37	resources/stimuli/target_circletriangles.svg	+	yes	0	0	2000
6.6.0	mac	2022-09-23	16:12:04	1	1	1	main_z	6	main_z	38	resources/stimuli/target-circlecircles.svg	+	yes	0	0	2000
6.6.0	mac	2022-09-23	16:12:04	1	1	1	main_z	6	main_z	39	resources/stimuli/target_squarediamond.svg	+	yes	0	0	2000
6.6.0	mac	2022-09-23	16:12:04	1	1	1	main_z	6	main_z	40	resources/stimuli/target_diamondsquares.svg	+	yes	0	0	2000
6.6.0	mac	2022-09-23	16:12:04	1	1	1	main_z	7	main_z	1	resources/stimuli/distractor_triangletriangles.svg	+	no	53	1	289
6.6.0	mac	2022-09-23	16:12:04	1	1	1	main_z	7	main_z	2	resources/stimuli/target_circlesquares.svg	+	yes	0	0	2000
6.6.0	mac	2022-09-23	16:12:04	1	1	1	main_z	7	main_z	3	resources/stimuli/distractor_triangletriangles.svg	+	no	0	1	2000
6.6.0	mac	2022-09-23	16:12:04	1	1	1	main_z	7	main_z	4	resources/stimuli/target_circlesquares.svg	+	yes	0	0	2000
6.6.0	mac	2022-09-23	16:12:04	1	1	1	main_z	7	main_z	5	resources/stimuli/distractor_diamonddiamonds.svg	+	no	53	1	285
6.6.0	mac	2022-09-23	16:12:04	1	1	1	main_z	7	main_z	6	resources/stimuli/target_diamondcircles.svg	+	yes	0	0	2000
6.6.0	mac	2022-09-23	16:12:04	1	1	1	main_z	7	main_z	7	resources/stimuli/target_diamondcircles.svg	+	yes	0	0	2000
6.6.0	mac	2022-09-23	16:12:04	1	1	1	main_z	7	main_z	8	resources/stimuli/target_circlesquares.svg	+	yes	53	1	289
6.6.0	mac	2022-09-23	16:12:04	1	1	1	main_z	7	main_z	9	resources/stimuli/target_squarediamond.svg	+	yes	53	1	281
6.6.0	mac	2022-09-23	16:12:04	1	1	1	main_z	7	main_z	10	resources/stimuli/target_squaretriangle.svg	+	yes	53	1	287
6.6.0	mac	2022-09-23	16:12:04	1	1	1	main_z	7	main_z	11	resources/stimuli/distractor_diamondtriangles.svg	+	no	53	1	292
6.6.0	mac	2022-09-23	16:12:04	1	1	1	main_z	7	main_z	12	resources/stimuli/target_squarediamond.svg	+	yes	0	0	2000
6.6.0	mac	2022-09-23	16:12:04	1	1	1	main_z	7	main_z	13	resources/stimuli/target_diamondsquares.svg	+	yes	0	0	2000
6.6.0	mac	2022-09-23	16:12:04	1	1	1	main_z	7	main_z	14	resources/stimuli/target_trianglesquares.svg	+	yes	53	1	283
6.6.0	mac	2022-09-23	16:12:04	1	1	1	main_z	7	main_z	15	resources/stimuli/target_trianglecircles.svg	+	yes	0	0	2000
6.6.0	mac	2022-09-23	16:12:04	1	1	1	main_z	7	main_z	16	resources/stimuli/target_diamondcircles.svg	+	yes	0	0	2000
6.6.0	mac	2022-09-23	16:12:04	1	1	1	main_z	7	main_z	17	resources/stimuli/target_diamondsquares.svg	+	yes	53	1	287
6.6.0	mac	2022-09-23	16:12:04	1	1	1	main_z	7	main_z	18	resources/stimuli/target_squaresquare.svg	+	yes	0	0	2000
6.6.0	mac	2022-09-23	16:12:04	1	1	1	main_z	7	main_z	19	resources/stimuli/target-circlecircles.svg	+	yes	53	1	289
6.6.0	mac	2022-09-23	16:12:04	1	1	1	main_z	7	main_z	20	resources/stimuli/target_circletriangles.svg	+	yes	53	1	294
6.6.0	mac	2022-09-23	16:12:04	1	1	1	main_z	7	main_z	21	resources/stimuli/distractor_trianglesdiamonds.svg	+	no	53	1	289
6.6.0	mac	2022-09-23	16:12:04	1	1	1	main_z	7	main_z	22	resources/stimuli/distractor_diamonddiamonds.svg	+	no	53	1	282
6.6.0	mac	2022-09-23	16:12:04	1	1	1	main_z	7	main_z	23	resources/stimuli/target_diamondcircles.svg	+	yes	53	1	286
6.6.0	mac	2022-09-23	16:12:04	1	1	1	main_z	7	main_z	24	resources/stimuli/target_squaresquare.svg	+	yes	53	1	291
6.6.0	mac	2022-09-23	16:12:04	1	1	1	main_z	7	main_z	25	resources/stimuli/target_diamondsquares.svg	+	yes	0	0	2000
6.6.0	mac	2022-09-23	16:12:04	1	1	1	main_z	7	main_z	26	resources/stimuli/target_circletriangles.svg	+	yes	0	0	2000
6.6.0	mac	2022-09-23	16:12:04	1	1	1	main_z	7	main_z	27	resources/stimuli/target_trianglecircles.svg	+	yes	0	0	2000
6.6.0	mac	2022-09-23	16:12:04	1	1	1	main_z	7	main_z	28	resources/stimuli/distractor_trianglesdiamonds.svg	+	no	0	1	2000
6.6.0	mac	2022-09-23	16:12:04	1	1	1	main_z	7	main_z	29	resources/stimuli/target_squaretriangle.svg	+	yes	53	1	281
6.6.0	mac	2022-09-23	16:12:04	1	1	1	main_z	7	main_z	30	resources/stimuli/target_circlediamonds.svg	+	yes	53	1	286
6.6.0	mac	2022-09-23	16:12:04	1	1	1	main_z	7	main_z	31	resources/stimuli/distractor_diamondtriangles.svg	+	no	53	1	291
6.6.0	mac	2022-09-23	16:12:04	1	1	1	main_z	7	main_z	32	resources/stimuli/target_squarecircle.svg	+	yes	53	1	283
6.6.0	mac	2022-09-23	16:12:04	1	1	1	main_z	7	main_z	33	resources/stimuli/target_circlediamonds.svg	+	yes	53	1	289
6.6.0	mac	2022-09-23	16:12:04	1	1	1	main_z	7	main_z	34	resources/stimuli/target_circletriangles.svg	+	yes	0	0	2000
6.6.0	mac	2022-09-23	16:12:04	1	1	1	main_z	7	main_z	35	resources/stimuli/target_diamondsquares.svg	+	yes	53	1	288
6.6.0	mac	2022-09-23	16:12:04	1	1	1	main_z	7	main_z	36	resources/stimuli/target-circlecircles.svg	+	yes	53	1	292
6.6.0	mac	2022-09-23	16:12:04	1	1	1	main_z	7	main_z	37	resources/stimuli/target_trianglesquares.svg	+	yes	0	0	2000
6.6.0	mac	2022-09-23	16:12:04	1	1	1	main_z	7	main_z	38	resources/stimuli/target-circlecircles.svg	+	yes	0	0	2000
6.6.0	mac	2022-09-23	16:12:04	1	1	1	main_z	7	main_z	39	resources/stimuli/target_circlediamonds.svg	+	yes	0	0	2000
6.6.0	mac	2022-09-23	16:12:04	1	1	1	main_z	7	main_z	40	resources/stimuli/target_squarecircle.svg	+	yes	53	1	289
