build	computer.platform	date	time	timestamp	time_elapsed_ms	subject	group	session	blockcode	blocknum	trialcode	trialnum	stimulus_left	stimulus_right	stim_index	target_present	response	correct	latency
6.6.0	mac	2022-09-29	14:58:50	14:58:54	3248	1	1	1	practice_slash	1	practice_slash	1	resources/stimuli/distractor_trianglediamonds.svg	resources/stimuli/target_diamondcircles.svg	12	yes	53	1	266
6.6.0	mac	2022-09-29	14:58:50	14:58:57	6365	1	1	1	practice_slash	1	practice_slash	2	resources/stimuli/target_circlediamonds.svg	resources/stimuli/distractor_trianglediamonds.svg	4	yes	0	0	2000
6.6.0	mac	2022-09-29	14:58:50	14:59:00	9485	1	1	1	practice_slash	1	practice_slash	3	resources/stimuli/target_diamondsquares.svg	resources/stimuli/distractor_trianglediamonds.svg	6	yes	0	0	2000
6.6.0	mac	2022-09-29	14:58:50	14:59:03	12605	1	1	1	practice_slash	1	practice_slash	4	resources/stimuli/distractor_diamondtriangles.svg	resources/stimuli/distractor_trianglediamonds.svg	14	no	0	1	2000
6.6.0	mac	2022-09-29	14:58:50	14:59:05	13986	1	1	1	practice_slash	1	practice_slash	5	resources/stimuli/distractor_diamondtriangles.svg	resources/stimuli/target_circletriangles.svg	7	yes	53	1	263
6.6.0	mac	2022-09-29	14:58:50	14:59:08	17091	1	1	1	practice_slash	1	practice_slash	6	resources/stimuli/distractor_diamondtriangles.svg	resources/stimuli/distractor_diamondtriangles.svg	13	no	0	1	2000
6.6.0	mac	2022-09-29	14:58:50	14:59:11	20210	1	1	1	practice_slash	1	practice_slash	7	resources/stimuli/target_circlediamonds.svg	resources/stimuli/distractor_diamondtriangles.svg	1	yes	0	0	2000
6.6.0	mac	2022-09-29	14:58:50	14:59:12	21588	1	1	1	practice_slash	1	practice_slash	8	resources/stimuli/target_squarediamonds.svg	resources/stimuli/distractor_trianglediamonds.svg	5	yes	53	1	260
6.6.0	mac	2022-09-29	14:58:50	14:59:14	22956	1	1	1	practice_slash	1	practice_slash	9	resources/stimuli/distractor_trianglediamonds.svg	resources/stimuli/target_circlediamonds.svg	10	yes	53	1	259
6.6.0	mac	2022-09-29	14:58:50	14:59:15	24325	1	1	1	practice_slash	1	practice_slash	10	resources/stimuli/distractor_trianglediamonds.svg	resources/stimuli/distractor_trianglediamonds.svg	15	no	53	0	260
6.6.0	mac	2022-09-29	14:58:50	14:59:16	25700	1	1	1	practice_slash	1	practice_slash	11	resources/stimuli/distractor_diamondtriangles.svg	resources/stimuli/target_trianglecircles.svg	9	yes	53	1	267
6.6.0	mac	2022-09-29	14:58:50	14:59:18	27735	1	1	1	practice_slash	1	practice_slash	12	resources/stimuli/target_squarediamonds.svg	resources/stimuli/distractor_diamondtriangles.svg	2	yes	53	1	266
6.6.0	mac	2022-09-29	14:58:50	14:59:22	30853	1	1	1	practice_slash	1	practice_slash	13	resources/stimuli/distractor_diamondtriangles.svg	resources/stimuli/target_diamondcircles.svg	8	yes	0	0	2000
6.6.0	mac	2022-09-29	14:58:50	14:59:25	33972	1	1	1	practice_slash	1	practice_slash	14	resources/stimuli/distractor_trianglediamonds.svg	resources/stimuli/target_squarediamonds.svg	11	yes	0	0	2000
6.6.0	mac	2022-09-29	14:58:50	14:59:26	35352	1	1	1	practice_slash	1	practice_slash	15	resources/stimuli/target_diamondsquares.svg	resources/stimuli/distractor_diamondtriangles.svg	3	yes	53	1	261
6.6.0	mac	2022-09-29	14:58:50	14:59:27	36710	1	1	1	practice_slash	1	practice_slash	16	resources/stimuli/distractor_trianglediamonds.svg	resources/stimuli/distractor_diamondtriangles.svg	16	no	53	0	253
6.6.0	mac	2022-09-29	14:58:50	14:59:29	38450	1	1	1	main_slash	2	main_slash	1	resources/stimuli/distractor_diamondtriangles.svg	resources/stimuli/distractor_trianglediamonds.svg	37	no	53	0	257
6.6.0	mac	2022-09-29	14:58:50	14:59:30	39314	1	1	1	main_slash	2	main_slash	2	resources/stimuli/target_diamondsquares.svg	resources/stimuli/distractor_trianglediamonds.svg	20	yes	53	1	253
6.6.0	mac	2022-09-29	14:58:50	14:59:33	41929	1	1	1	main_slash	2	main_slash	3	resources/stimuli/target_squarediamonds.svg	resources/stimuli/distractor_diamondtriangles.svg	8	yes	0	0	2000
6.6.0	mac	2022-09-29	14:58:50	14:59:35	44646	1	1	1	main_slash	2	main_slash	4	resources/stimuli/target_squaretriangles.svg	resources/stimuli/distractor_diamondtriangles.svg	7	yes	0	0	2000
6.6.0	mac	2022-09-29	14:58:50	14:59:38	47266	1	1	1	main_slash	2	main_slash	5	resources/stimuli/target_diamondcircles.svg	resources/stimuli/distractor_trianglediamonds.svg	19	yes	0	0	2000
6.6.0	mac	2022-09-29	14:58:50	14:59:42	50852	1	1	1	main_slash	2	main_slash	6	resources/stimuli/distractor_trianglediamonds.svg	resources/stimuli/distractor_diamondtriangles.svg	36	no	0	1	2000
6.6.0	mac	2022-09-29	14:58:50	14:59:44	53471	1	1	1	main_slash	2	main_slash	7	resources/stimuli/distractor_diamondtriangles.svg	resources/stimuli/target_squaretriangles.svg	15	yes	0	0	2000
6.6.0	mac	2022-09-29	14:58:50	14:59:45	54354	1	1	1	main_slash	2	main_slash	8	resources/stimuli/distractor_trianglediamonds.svg	resources/stimuli/distractor_trianglediamonds.svg	33	no	53	0	264
6.6.0	mac	2022-09-29	14:58:50	14:59:49	58659	1	1	1	main_slash	2	main_slash	9	resources/stimuli/target_diamondsquares.svg	resources/stimuli/distractor_diamondtriangles.svg	24	yes	0	0	2000
6.6.0	mac	2022-09-29	14:58:50	14:59:53	62478	1	1	1	main_slash	2	main_slash	10	resources/stimuli/distractor_diamondtriangles.svg	resources/stimuli/distractor_diamondtriangles.svg	39	no	0	1	2000
6.6.0	mac	2022-09-29	14:58:50	14:59:56	65098	1	1	1	main_slash	2	main_slash	11	resources/stimuli/distractor_diamondtriangles.svg	resources/stimuli/target_trianglesquares.svg	30	yes	0	0	2000
6.6.0	mac	2022-09-29	14:58:50	14:59:58	67716	1	1	1	main_slash	2	main_slash	12	resources/stimuli/target_circletriangles.svg	resources/stimuli/distractor_trianglediamonds.svg	1	yes	0	0	2000
6.6.0	mac	2022-09-29	14:58:50	15:00:01	70036	1	1	1	main_slash	2	main_slash	13	resources/stimuli/distractor_trianglediamonds.svg	resources/stimuli/target_circletriangles.svg	9	yes	53	1	266
6.6.0	mac	2022-09-29	14:58:50	15:00:03	72703	1	1	1	main_slash	2	main_slash	14	resources/stimuli/distractor_trianglediamonds.svg	resources/stimuli/target_trianglecircles.svg	25	yes	0	0	2000
6.6.0	mac	2022-09-29	14:58:50	15:00:06	75322	1	1	1	main_slash	2	main_slash	15	resources/stimuli/distractor_trianglediamonds.svg	resources/stimuli/distractor_diamondtriangles.svg	35	no	0	1	2000
6.6.0	mac	2022-09-29	14:58:50	15:00:07	76199	1	1	1	main_slash	2	main_slash	16	resources/stimuli/distractor_diamondtriangles.svg	resources/stimuli/target_squarediamonds.svg	16	yes	53	1	258
6.6.0	mac	2022-09-29	14:58:50	15:00:09	78809	1	1	1	main_slash	2	main_slash	17	resources/stimuli/distractor_diamondtriangles.svg	resources/stimuli/target_trianglecircles.svg	29	yes	0	0	2000
6.6.0	mac	2022-09-29	14:58:50	15:00:13	81910	1	1	1	main_slash	2	main_slash	18	resources/stimuli/target_squarediamonds.svg	resources/stimuli/distractor_trianglediamonds.svg	4	yes	0	0	2000
6.6.0	mac	2022-09-29	14:58:50	15:00:15	84797	1	1	1	main_slash	2	main_slash	19	resources/stimuli/distractor_diamondtriangles.svg	resources/stimuli/target_diamondcircles.svg	31	yes	0	0	2000
6.6.0	mac	2022-09-29	14:58:50	15:00:16	85674	1	1	1	main_slash	2	main_slash	20	resources/stimuli/target_diamondcircles.svg	resources/stimuli/distractor_diamondtriangles.svg	23	yes	53	1	259
6.6.0	mac	2022-09-29	14:58:50	15:00:17	86536	1	1	1	main_slash	2	main_slash	21	resources/stimuli/distractor_diamondtriangles.svg	resources/stimuli/target_circletriangles.svg	13	yes	53	1	253
6.6.0	mac	2022-09-29	14:58:50	15:00:20	89150	1	1	1	main_slash	2	main_slash	22	resources/stimuli/distractor_trianglediamonds.svg	resources/stimuli/target_circlediamonds.svg	10	yes	0	0	2000
6.6.0	mac	2022-09-29	14:58:50	15:00:22	91769	1	1	1	main_slash	2	main_slash	23	resources/stimuli/distractor_diamondtriangles.svg	resources/stimuli/target_diamondsquares.svg	32	yes	0	0	2000
6.6.0	mac	2022-09-29	14:58:50	15:00:23	92642	1	1	1	main_slash	2	main_slash	24	resources/stimuli/target_trianglecircles.svg	resources/stimuli/distractor_trianglediamonds.svg	17	yes	53	1	255
6.6.0	mac	2022-09-29	14:58:50	15:00:26	95255	1	1	1	main_slash	2	main_slash	25	resources/stimuli/distractor_trianglediamonds.svg	resources/stimuli/target_squarediamonds.svg	12	yes	0	0	2000
6.6.0	mac	2022-09-29	14:58:50	15:00:29	98574	1	1	1	main_slash	2	main_slash	26	resources/stimuli/distractor_trianglediamonds.svg	resources/stimuli/target_diamondcircles.svg	27	yes	0	0	2000
6.6.0	mac	2022-09-29	14:58:50	15:00:32	101194	1	1	1	main_slash	2	main_slash	27	resources/stimuli/target_trianglesquares.svg	resources/stimuli/distractor_trianglediamonds.svg	18	yes	0	0	2000
6.6.0	mac	2022-09-29	14:58:50	15:00:33	102197	1	1	1	main_slash	2	main_slash	28	resources/stimuli/distractor_diamondtriangles.svg	resources/stimuli/target_circlediamonds.svg	14	yes	53	1	268
6.6.0	mac	2022-09-29	14:58:50	15:00:35	104813	1	1	1	main_slash	2	main_slash	29	resources/stimuli/distractor_trianglediamonds.svg	resources/stimuli/target_trianglesquares.svg	26	yes	0	0	2000
6.6.0	mac	2022-09-29	14:58:50	15:00:38	107449	1	1	1	main_slash	2	main_slash	30	resources/stimuli/target_squaretriangles.svg	resources/stimuli/distractor_trianglediamonds.svg	3	yes	0	0	2000
6.6.0	mac	2022-09-29	14:58:50	15:00:39	108328	1	1	1	main_slash	2	main_slash	31	resources/stimuli/distractor_trianglediamonds.svg	resources/stimuli/distractor_trianglediamonds.svg	34	no	53	0	260
6.6.0	mac	2022-09-29	14:58:50	15:00:40	109196	1	1	1	main_slash	2	main_slash	32	resources/stimuli/distractor_diamondtriangles.svg	resources/stimuli/distractor_diamondtriangles.svg	40	no	53	0	261
6.6.0	mac	2022-09-29	14:58:50	15:00:44	112986	1	1	1	main_slash	2	main_slash	33	resources/stimuli/target_circletriangles.svg	resources/stimuli/distractor_diamondtriangles.svg	5	yes	0	0	2000
6.6.0	mac	2022-09-29	14:58:50	15:00:46	115606	1	1	1	main_slash	2	main_slash	34	resources/stimuli/target_trianglecircles.svg	resources/stimuli/distractor_diamondtriangles.svg	21	yes	0	0	2000
6.6.0	mac	2022-09-29	14:58:50	15:00:50	119175	1	1	1	main_slash	2	main_slash	35	resources/stimuli/distractor_trianglediamonds.svg	resources/stimuli/target_squaretriangles.svg	11	yes	0	0	2000
6.6.0	mac	2022-09-29	14:58:50	15:00:53	121877	1	1	1	main_slash	2	main_slash	36	resources/stimuli/target_circlediamonds.svg	resources/stimuli/distractor_diamondtriangles.svg	6	yes	0	0	2000
6.6.0	mac	2022-09-29	14:58:50	15:00:58	127631	1	1	1	main_slash	2	main_slash	37	resources/stimuli/distractor_diamondtriangles.svg	resources/stimuli/distractor_trianglediamonds.svg	38	no	53	0	264
6.6.0	mac	2022-09-29	14:58:50	15:01:01	130300	1	1	1	main_slash	2	main_slash	38	resources/stimuli/target_trianglesquares.svg	resources/stimuli/distractor_diamondtriangles.svg	22	yes	0	0	2000
6.6.0	mac	2022-09-29	14:58:50	15:01:04	132953	1	1	1	main_slash	2	main_slash	39	resources/stimuli/target_circlediamonds.svg	resources/stimuli/distractor_trianglediamonds.svg	2	yes	0	0	2000
6.6.0	mac	2022-09-29	14:58:50	15:01:05	133837	1	1	1	main_slash	2	main_slash	40	resources/stimuli/distractor_trianglediamonds.svg	resources/stimuli/target_diamondsquares.svg	28	yes	53	1	265
6.6.0	mac	2022-09-29	14:58:50	15:01:07	136456	1	1	1	main_slash	2	main_slash	41	resources/stimuli/distractor_diamondtriangles.svg	resources/stimuli/distractor_diamondtriangles.svg	39	no	0	1	2000
6.6.0	mac	2022-09-29	14:58:50	15:01:10	139224	1	1	1	main_slash	2	main_slash	42	resources/stimuli/target_squaretriangles.svg	resources/stimuli/distractor_diamondtriangles.svg	7	yes	0	0	2000
6.6.0	mac	2022-09-29	14:58:50	15:01:13	141843	1	1	1	main_slash	2	main_slash	43	resources/stimuli/distractor_trianglediamonds.svg	resources/stimuli/distractor_trianglediamonds.svg	33	no	0	1	2000
6.6.0	mac	2022-09-29	14:58:50	15:01:13	142719	1	1	1	main_slash	2	main_slash	44	resources/stimuli/target_trianglesquares.svg	resources/stimuli/distractor_diamondtriangles.svg	22	yes	53	1	257
6.6.0	mac	2022-09-29	14:58:50	15:01:14	143595	1	1	1	main_slash	2	main_slash	45	resources/stimuli/distractor_diamondtriangles.svg	resources/stimuli/target_circletriangles.svg	13	yes	53	1	265
6.6.0	mac	2022-09-29	14:58:50	15:01:15	144473	1	1	1	main_slash	2	main_slash	46	resources/stimuli/distractor_diamondtriangles.svg	resources/stimuli/target_squarediamonds.svg	16	yes	53	1	259
6.6.0	mac	2022-09-29	14:58:50	15:01:18	147081	1	1	1	main_slash	2	main_slash	47	resources/stimuli/distractor_trianglediamonds.svg	resources/stimuli/target_diamondsquares.svg	28	yes	0	0	2000
6.6.0	mac	2022-09-29	14:58:50	15:01:20	149700	1	1	1	main_slash	2	main_slash	48	resources/stimuli/distractor_trianglediamonds.svg	resources/stimuli/target_squaretriangles.svg	11	yes	0	0	2000
6.6.0	mac	2022-09-29	14:58:50	15:01:21	150587	1	1	1	main_slash	2	main_slash	49	resources/stimuli/target_squarediamonds.svg	resources/stimuli/distractor_trianglediamonds.svg	4	yes	53	1	268
6.6.0	mac	2022-09-29	14:58:50	15:01:24	153203	1	1	1	main_slash	2	main_slash	50	resources/stimuli/target_squaretriangles.svg	resources/stimuli/distractor_trianglediamonds.svg	3	yes	0	0	2000
6.6.0	mac	2022-09-29	14:58:50	15:01:25	154090	1	1	1	main_slash	2	main_slash	51	resources/stimuli/distractor_diamondtriangles.svg	resources/stimuli/target_diamondcircles.svg	31	yes	53	1	269
6.6.0	mac	2022-09-29	14:58:50	15:01:26	154975	1	1	1	main_slash	2	main_slash	52	resources/stimuli/distractor_trianglediamonds.svg	resources/stimuli/target_circlediamonds.svg	10	yes	53	1	269
6.6.0	mac	2022-09-29	14:58:50	15:01:27	155857	1	1	1	main_slash	2	main_slash	53	resources/stimuli/target_circletriangles.svg	resources/stimuli/distractor_diamondtriangles.svg	5	yes	53	1	267
6.6.0	mac	2022-09-29	14:58:50	15:01:29	158474	1	1	1	main_slash	2	main_slash	54	resources/stimuli/distractor_trianglediamonds.svg	resources/stimuli/distractor_trianglediamonds.svg	34	no	0	1	2000
6.6.0	mac	2022-09-29	14:58:50	15:01:32	161093	1	1	1	main_slash	2	main_slash	55	resources/stimuli/distractor_trianglediamonds.svg	resources/stimuli/distractor_diamondtriangles.svg	36	no	0	1	2000
6.6.0	mac	2022-09-29	14:58:50	15:01:34	163712	1	1	1	main_slash	2	main_slash	56	resources/stimuli/target_circletriangles.svg	resources/stimuli/distractor_trianglediamonds.svg	1	yes	0	0	2000
6.6.0	mac	2022-09-29	14:58:50	15:01:35	164600	1	1	1	main_slash	2	main_slash	57	resources/stimuli/target_diamondcircles.svg	resources/stimuli/distractor_diamondtriangles.svg	23	yes	53	1	269
6.6.0	mac	2022-09-29	14:58:50	15:01:36	165481	1	1	1	main_slash	2	main_slash	58	resources/stimuli/distractor_diamondtriangles.svg	resources/stimuli/target_trianglecircles.svg	29	yes	53	1	266
6.6.0	mac	2022-09-29	14:58:50	15:01:39	168099	1	1	1	main_slash	2	main_slash	59	resources/stimuli/distractor_trianglediamonds.svg	resources/stimuli/target_circletriangles.svg	9	yes	0	0	2000
6.6.0	mac	2022-09-29	14:58:50	15:01:41	170718	1	1	1	main_slash	2	main_slash	60	resources/stimuli/distractor_diamondtriangles.svg	resources/stimuli/target_squaretriangles.svg	15	yes	0	0	2000
6.6.0	mac	2022-09-29	14:58:50	15:01:42	171598	1	1	1	main_slash	2	main_slash	61	resources/stimuli/target_circlediamonds.svg	resources/stimuli/distractor_trianglediamonds.svg	2	yes	53	1	262
6.6.0	mac	2022-09-29	14:58:50	15:01:43	172470	1	1	1	main_slash	2	main_slash	62	resources/stimuli/target_circlediamonds.svg	resources/stimuli/distractor_diamondtriangles.svg	6	yes	53	1	266
6.6.0	mac	2022-09-29	14:58:50	15:01:44	173353	1	1	1	main_slash	2	main_slash	63	resources/stimuli/distractor_diamondtriangles.svg	resources/stimuli/target_diamondsquares.svg	32	yes	53	1	265
6.6.0	mac	2022-09-29	14:58:50	15:01:47	175972	1	1	1	main_slash	2	main_slash	64	resources/stimuli/target_diamondsquares.svg	resources/stimuli/distractor_diamondtriangles.svg	24	yes	0	0	2000
6.6.0	mac	2022-09-29	14:58:50	15:01:48	176859	1	1	1	main_slash	2	main_slash	65	resources/stimuli/distractor_trianglediamonds.svg	resources/stimuli/distractor_diamondtriangles.svg	35	no	53	0	269
6.6.0	mac	2022-09-29	14:58:50	15:01:48	177732	1	1	1	main_slash	2	main_slash	66	resources/stimuli/distractor_diamondtriangles.svg	resources/stimuli/distractor_trianglediamonds.svg	38	no	53	0	257
6.6.0	mac	2022-09-29	14:58:50	15:01:49	178609	1	1	1	main_slash	2	main_slash	67	resources/stimuli/target_trianglecircles.svg	resources/stimuli/distractor_trianglediamonds.svg	17	yes	53	1	267
6.6.0	mac	2022-09-29	14:58:50	15:01:50	179491	1	1	1	main_slash	2	main_slash	68	resources/stimuli/target_trianglecircles.svg	resources/stimuli/distractor_diamondtriangles.svg	21	yes	53	1	265
6.6.0	mac	2022-09-29	14:58:50	15:01:53	182161	1	1	1	main_slash	2	main_slash	69	resources/stimuli/distractor_diamondtriangles.svg	resources/stimuli/distractor_trianglediamonds.svg	37	no	0	1	2000
6.6.0	mac	2022-09-29	14:58:50	15:01:55	184780	1	1	1	main_slash	2	main_slash	70	resources/stimuli/target_diamondcircles.svg	resources/stimuli/distractor_trianglediamonds.svg	19	yes	0	0	2000
6.6.0	mac	2022-09-29	14:58:50	15:01:58	187397	1	1	1	main_slash	2	main_slash	71	resources/stimuli/target_diamondsquares.svg	resources/stimuli/distractor_trianglediamonds.svg	20	yes	0	0	2000
6.6.0	mac	2022-09-29	14:58:50	15:02:01	190033	1	1	1	main_slash	2	main_slash	72	resources/stimuli/distractor_trianglediamonds.svg	resources/stimuli/target_trianglecircles.svg	25	yes	0	0	2000
6.6.0	mac	2022-09-29	14:58:50	15:02:04	192835	1	1	1	main_slash	2	main_slash	73	resources/stimuli/distractor_trianglediamonds.svg	resources/stimuli/target_trianglesquares.svg	26	yes	0	0	2000
6.6.0	mac	2022-09-29	14:58:50	15:02:06	195454	1	1	1	main_slash	2	main_slash	74	resources/stimuli/distractor_diamondtriangles.svg	resources/stimuli/target_circlediamonds.svg	14	yes	0	0	2000
6.6.0	mac	2022-09-29	14:58:50	15:02:09	198074	1	1	1	main_slash	2	main_slash	75	resources/stimuli/distractor_trianglediamonds.svg	resources/stimuli/target_squarediamonds.svg	12	yes	0	0	2000
6.6.0	mac	2022-09-29	14:58:50	15:02:11	200692	1	1	1	main_slash	2	main_slash	76	resources/stimuli/target_squarediamonds.svg	resources/stimuli/distractor_diamondtriangles.svg	8	yes	0	0	2000
6.6.0	mac	2022-09-29	14:58:50	15:02:12	201570	1	1	1	main_slash	2	main_slash	77	resources/stimuli/distractor_diamondtriangles.svg	resources/stimuli/target_trianglesquares.svg	30	yes	53	1	259
6.6.0	mac	2022-09-29	14:58:50	15:02:15	204178	1	1	1	main_slash	2	main_slash	78	resources/stimuli/target_trianglesquares.svg	resources/stimuli/distractor_trianglediamonds.svg	18	yes	0	0	2000
6.6.0	mac	2022-09-29	14:58:50	15:02:17	206797	1	1	1	main_slash	2	main_slash	79	resources/stimuli/distractor_diamondtriangles.svg	resources/stimuli/distractor_diamondtriangles.svg	40	no	0	1	2000
6.6.0	mac	2022-09-29	14:58:50	15:02:20	209415	1	1	1	main_slash	2	main_slash	80	resources/stimuli/distractor_trianglediamonds.svg	resources/stimuli/target_diamondcircles.svg	27	yes	0	0	2000
6.6.0	mac	2022-09-29	14:58:50	15:02:20	209415	1	1	1	interblock_break	3	interblock_break	1	resources/stimuli/distractor_trianglediamonds.svg	resources/stimuli/target_diamondcircles.svg	27	yes	0	0	20000
6.6.0	mac	2022-09-29	14:58:50	15:02:44	233470	1	1	1	practice_z	4	practice_z	1	resources/stimuli/target_squarediamonds.svg	resources/stimuli/distractor_trianglediamonds.svg	5	yes	0	0	2000
6.6.0	mac	2022-09-29	14:58:50	15:02:46	234855	1	1	1	practice_z	4	practice_z	2	resources/stimuli/target_circlediamonds.svg	resources/stimuli/distractor_trianglediamonds.svg	4	yes	44	1	267
6.6.0	mac	2022-09-29	14:58:50	15:02:49	237973	1	1	1	practice_z	4	practice_z	3	resources/stimuli/distractor_trianglediamonds.svg	resources/stimuli/distractor_diamondtriangles.svg	16	no	0	1	2000
6.6.0	mac	2022-09-29	14:58:50	15:02:52	241093	1	1	1	practice_z	4	practice_z	4	resources/stimuli/target_squarediamonds.svg	resources/stimuli/distractor_diamondtriangles.svg	2	yes	0	0	2000
6.6.0	mac	2022-09-29	14:58:50	15:02:55	244212	1	1	1	practice_z	4	practice_z	5	resources/stimuli/distractor_trianglediamonds.svg	resources/stimuli/target_squarediamonds.svg	11	yes	0	0	2000
6.6.0	mac	2022-09-29	14:58:50	15:02:56	245601	1	1	1	practice_z	4	practice_z	6	resources/stimuli/distractor_diamondtriangles.svg	resources/stimuli/distractor_trianglediamonds.svg	14	no	44	0	271
6.6.0	mac	2022-09-29	14:58:50	15:02:58	246979	1	1	1	practice_z	4	practice_z	7	resources/stimuli/distractor_diamondtriangles.svg	resources/stimuli/target_circletriangles.svg	7	yes	44	1	265
6.6.0	mac	2022-09-29	14:58:50	15:03:01	250100	1	1	1	practice_z	4	practice_z	8	resources/stimuli/distractor_trianglediamonds.svg	resources/stimuli/target_diamondcircles.svg	12	yes	0	0	2000
6.6.0	mac	2022-09-29	14:58:50	15:03:02	251519	1	1	1	practice_z	4	practice_z	9	resources/stimuli/distractor_diamondtriangles.svg	resources/stimuli/target_trianglecircles.svg	9	yes	44	1	267
6.6.0	mac	2022-09-29	14:58:50	15:03:05	254636	1	1	1	practice_z	4	practice_z	10	resources/stimuli/target_diamondsquares.svg	resources/stimuli/distractor_diamondtriangles.svg	3	yes	0	0	2000
6.6.0	mac	2022-09-29	14:58:50	15:03:08	257756	1	1	1	practice_z	4	practice_z	11	resources/stimuli/distractor_trianglediamonds.svg	resources/stimuli/target_circlediamonds.svg	10	yes	0	0	2000
6.6.0	mac	2022-09-29	14:58:50	15:03:12	260876	1	1	1	practice_z	4	practice_z	12	resources/stimuli/target_circlediamonds.svg	resources/stimuli/distractor_diamondtriangles.svg	1	yes	0	0	2000
6.6.0	mac	2022-09-29	14:58:50	15:03:13	262265	1	1	1	practice_z	4	practice_z	13	resources/stimuli/target_diamondsquares.svg	resources/stimuli/distractor_trianglediamonds.svg	6	yes	44	1	271
6.6.0	mac	2022-09-29	14:58:50	15:03:14	263640	1	1	1	practice_z	4	practice_z	14	resources/stimuli/distractor_trianglediamonds.svg	resources/stimuli/distractor_trianglediamonds.svg	15	no	44	0	261
6.6.0	mac	2022-09-29	14:58:50	15:03:17	266748	1	1	1	practice_z	4	practice_z	15	resources/stimuli/distractor_diamondtriangles.svg	resources/stimuli/distractor_diamondtriangles.svg	13	no	0	1	2000
6.6.0	mac	2022-09-29	14:58:50	15:03:21	269867	1	1	1	practice_z	4	practice_z	16	resources/stimuli/distractor_diamondtriangles.svg	resources/stimuli/target_diamondcircles.svg	8	yes	0	0	2000
6.6.0	mac	2022-09-29	14:58:50	15:03:22	271619	1	1	1	main_z	5	main_z	1	resources/stimuli/distractor_diamondtriangles.svg	resources/stimuli/target_trianglecircles.svg	29	yes	44	1	265
6.6.0	mac	2022-09-29	14:58:50	15:03:25	274237	1	1	1	main_z	5	main_z	2	resources/stimuli/distractor_diamondtriangles.svg	resources/stimuli/distractor_diamondtriangles.svg	40	no	0	1	2000
6.6.0	mac	2022-09-29	14:58:50	15:03:28	276855	1	1	1	main_z	5	main_z	3	resources/stimuli/target_circlediamonds.svg	resources/stimuli/distractor_trianglediamonds.svg	2	yes	0	0	2000
6.6.0	mac	2022-09-29	14:58:50	15:03:28	277739	1	1	1	main_z	5	main_z	4	resources/stimuli/distractor_trianglediamonds.svg	resources/stimuli/distractor_diamondtriangles.svg	35	no	44	0	265
6.6.0	mac	2022-09-29	14:58:50	15:03:29	278621	1	1	1	main_z	5	main_z	5	resources/stimuli/target_diamondsquares.svg	resources/stimuli/distractor_diamondtriangles.svg	24	yes	44	1	263
6.6.0	mac	2022-09-29	14:58:50	15:03:30	279488	1	1	1	main_z	5	main_z	6	resources/stimuli/target_diamondcircles.svg	resources/stimuli/distractor_trianglediamonds.svg	19	yes	44	1	263
6.6.0	mac	2022-09-29	14:58:50	15:03:31	280359	1	1	1	main_z	5	main_z	7	resources/stimuli/target_trianglesquares.svg	resources/stimuli/distractor_diamondtriangles.svg	22	yes	44	1	267
6.6.0	mac	2022-09-29	14:58:50	15:03:32	281239	1	1	1	main_z	5	main_z	8	resources/stimuli/target_diamondsquares.svg	resources/stimuli/distractor_trianglediamonds.svg	20	yes	44	1	263
6.6.0	mac	2022-09-29	14:58:50	15:03:33	282111	1	1	1	main_z	5	main_z	9	resources/stimuli/target_trianglecircles.svg	resources/stimuli/distractor_diamondtriangles.svg	21	yes	44	1	267
6.6.0	mac	2022-09-29	14:58:50	15:03:34	282995	1	1	1	main_z	5	main_z	10	resources/stimuli/target_circletriangles.svg	resources/stimuli/distractor_diamondtriangles.svg	5	yes	44	1	267
6.6.0	mac	2022-09-29	14:58:50	15:03:36	285613	1	1	1	main_z	5	main_z	11	resources/stimuli/distractor_diamondtriangles.svg	resources/stimuli/target_diamondsquares.svg	32	yes	0	0	2000
6.6.0	mac	2022-09-29	14:58:50	15:03:37	286492	1	1	1	main_z	5	main_z	12	resources/stimuli/distractor_trianglediamonds.svg	resources/stimuli/target_trianglecircles.svg	25	yes	44	1	261
6.6.0	mac	2022-09-29	14:58:50	15:03:38	287493	1	1	1	main_z	5	main_z	13	resources/stimuli/distractor_diamondtriangles.svg	resources/stimuli/target_circlediamonds.svg	14	yes	44	1	261
6.6.0	mac	2022-09-29	14:58:50	15:03:41	290099	1	1	1	main_z	5	main_z	14	resources/stimuli/distractor_diamondtriangles.svg	resources/stimuli/target_circletriangles.svg	13	yes	0	0	2000
6.6.0	mac	2022-09-29	14:58:50	15:03:42	290978	1	1	1	main_z	5	main_z	15	resources/stimuli/distractor_trianglediamonds.svg	resources/stimuli/target_squarediamonds.svg	12	yes	44	1	261
6.6.0	mac	2022-09-29	14:58:50	15:03:44	293585	1	1	1	main_z	5	main_z	16	resources/stimuli/target_squarediamonds.svg	resources/stimuli/distractor_trianglediamonds.svg	4	yes	0	0	2000
6.6.0	mac	2022-09-29	14:58:50	15:03:47	296205	1	1	1	main_z	5	main_z	17	resources/stimuli/distractor_trianglediamonds.svg	resources/stimuli/target_diamondcircles.svg	27	yes	0	0	2000
6.6.0	mac	2022-09-29	14:58:50	15:03:49	298823	1	1	1	main_z	5	main_z	18	resources/stimuli/distractor_diamondtriangles.svg	resources/stimuli/target_squarediamonds.svg	16	yes	0	0	2000
6.6.0	mac	2022-09-29	14:58:50	15:03:52	301442	1	1	1	main_z	5	main_z	19	resources/stimuli/distractor_diamondtriangles.svg	resources/stimuli/target_squaretriangles.svg	15	yes	0	0	2000
6.6.0	mac	2022-09-29	14:58:50	15:03:53	302322	1	1	1	main_z	5	main_z	20	resources/stimuli/target_circletriangles.svg	resources/stimuli/distractor_trianglediamonds.svg	1	yes	44	1	261
6.6.0	mac	2022-09-29	14:58:50	15:03:56	304928	1	1	1	main_z	5	main_z	21	resources/stimuli/target_squaretriangles.svg	resources/stimuli/distractor_trianglediamonds.svg	3	yes	0	0	2000
6.6.0	mac	2022-09-29	14:58:50	15:03:58	307546	1	1	1	main_z	5	main_z	22	resources/stimuli/distractor_diamondtriangles.svg	resources/stimuli/distractor_trianglediamonds.svg	38	no	0	1	2000
6.6.0	mac	2022-09-29	14:58:50	15:04:01	310166	1	1	1	main_z	5	main_z	23	resources/stimuli/distractor_trianglediamonds.svg	resources/stimuli/target_trianglesquares.svg	26	yes	0	0	2000
6.6.0	mac	2022-09-29	14:58:50	15:04:02	311087	1	1	1	main_z	5	main_z	24	resources/stimuli/distractor_trianglediamonds.svg	resources/stimuli/target_circlediamonds.svg	10	yes	44	1	269
6.6.0	mac	2022-09-29	14:58:50	15:04:04	313701	1	1	1	main_z	5	main_z	25	resources/stimuli/distractor_diamondtriangles.svg	resources/stimuli/distractor_diamondtriangles.svg	39	no	0	1	2000
6.6.0	mac	2022-09-29	14:58:50	15:04:05	314588	1	1	1	main_z	5	main_z	26	resources/stimuli/distractor_trianglediamonds.svg	resources/stimuli/distractor_trianglediamonds.svg	33	no	44	0	267
6.6.0	mac	2022-09-29	14:58:50	15:04:06	315555	1	1	1	main_z	5	main_z	27	resources/stimuli/distractor_trianglediamonds.svg	resources/stimuli/target_diamondsquares.svg	28	yes	44	1	267
6.6.0	mac	2022-09-29	14:58:50	15:04:07	316439	1	1	1	main_z	5	main_z	28	resources/stimuli/distractor_diamondtriangles.svg	resources/stimuli/target_trianglesquares.svg	30	yes	44	1	267
6.6.0	mac	2022-09-29	14:58:50	15:04:10	319057	1	1	1	main_z	5	main_z	29	resources/stimuli/target_diamondcircles.svg	resources/stimuli/distractor_diamondtriangles.svg	23	yes	0	0	2000
6.6.0	mac	2022-09-29	14:58:50	15:04:12	321676	1	1	1	main_z	5	main_z	30	resources/stimuli/target_squarediamonds.svg	resources/stimuli/distractor_diamondtriangles.svg	8	yes	0	0	2000
6.6.0	mac	2022-09-29	14:58:50	15:04:13	322553	1	1	1	main_z	5	main_z	31	resources/stimuli/distractor_trianglediamonds.svg	resources/stimuli/distractor_trianglediamonds.svg	34	no	44	0	259
6.6.0	mac	2022-09-29	14:58:50	15:04:16	325161	1	1	1	main_z	5	main_z	32	resources/stimuli/distractor_diamondtriangles.svg	resources/stimuli/target_diamondcircles.svg	31	yes	0	0	2000
6.6.0	mac	2022-09-29	14:58:50	15:04:17	326051	1	1	1	main_z	5	main_z	33	resources/stimuli/target_squaretriangles.svg	resources/stimuli/distractor_diamondtriangles.svg	7	yes	44	1	270
6.6.0	mac	2022-09-29	14:58:50	15:04:18	326926	1	1	1	main_z	5	main_z	34	resources/stimuli/target_circlediamonds.svg	resources/stimuli/distractor_diamondtriangles.svg	6	yes	44	1	262
6.6.0	mac	2022-09-29	14:58:50	15:04:20	329549	1	1	1	main_z	5	main_z	35	resources/stimuli/distractor_trianglediamonds.svg	resources/stimuli/target_circletriangles.svg	9	yes	0	0	2000
6.6.0	mac	2022-09-29	14:58:50	15:04:23	332168	1	1	1	main_z	5	main_z	36	resources/stimuli/distractor_trianglediamonds.svg	resources/stimuli/target_squaretriangles.svg	11	yes	0	0	2000
6.6.0	mac	2022-09-29	14:58:50	15:04:24	333044	1	1	1	main_z	5	main_z	37	resources/stimuli/target_trianglecircles.svg	resources/stimuli/distractor_trianglediamonds.svg	17	yes	44	1	259
6.6.0	mac	2022-09-29	14:58:50	15:04:25	333905	1	1	1	main_z	5	main_z	38	resources/stimuli/target_trianglesquares.svg	resources/stimuli/distractor_trianglediamonds.svg	18	yes	44	1	252
6.6.0	mac	2022-09-29	14:58:50	15:04:27	336520	1	1	1	main_z	5	main_z	39	resources/stimuli/distractor_trianglediamonds.svg	resources/stimuli/distractor_diamondtriangles.svg	36	no	0	1	2000
6.6.0	mac	2022-09-29	14:58:50	15:04:30	339140	1	1	1	main_z	5	main_z	40	resources/stimuli/distractor_diamondtriangles.svg	resources/stimuli/distractor_trianglediamonds.svg	37	no	0	1	2000
6.6.0	mac	2022-09-29	14:58:50	15:04:32	341758	1	1	1	main_z	5	main_z	41	resources/stimuli/distractor_trianglediamonds.svg	resources/stimuli/distractor_diamondtriangles.svg	36	no	0	1	2000
6.6.0	mac	2022-09-29	14:58:50	15:04:33	342631	1	1	1	main_z	5	main_z	42	resources/stimuli/distractor_trianglediamonds.svg	resources/stimuli/distractor_trianglediamonds.svg	34	no	44	0	254
6.6.0	mac	2022-09-29	14:58:50	15:04:34	343499	1	1	1	main_z	5	main_z	43	resources/stimuli/distractor_trianglediamonds.svg	resources/stimuli/target_circlediamonds.svg	10	yes	44	1	255
6.6.0	mac	2022-09-29	14:58:50	15:04:35	344367	1	1	1	main_z	5	main_z	44	resources/stimuli/distractor_trianglediamonds.svg	resources/stimuli/target_trianglesquares.svg	26	yes	44	1	256
6.6.0	mac	2022-09-29	14:58:50	15:04:36	345239	1	1	1	main_z	5	main_z	45	resources/stimuli/distractor_diamondtriangles.svg	resources/stimuli/distractor_trianglediamonds.svg	37	no	44	0	260
6.6.0	mac	2022-09-29	14:58:50	15:04:39	347846	1	1	1	main_z	5	main_z	46	resources/stimuli/distractor_diamondtriangles.svg	resources/stimuli/target_squarediamonds.svg	16	yes	0	0	2000
6.6.0	mac	2022-09-29	14:58:50	15:04:41	350465	1	1	1	main_z	5	main_z	47	resources/stimuli/target_diamondcircles.svg	resources/stimuli/distractor_trianglediamonds.svg	19	yes	0	0	2000
6.6.0	mac	2022-09-29	14:58:50	15:04:42	351368	1	1	1	main_z	5	main_z	48	resources/stimuli/target_squarediamonds.svg	resources/stimuli/distractor_diamondtriangles.svg	8	yes	44	1	267
6.6.0	mac	2022-09-29	14:58:50	15:04:45	353985	1	1	1	main_z	5	main_z	49	resources/stimuli/target_squaretriangles.svg	resources/stimuli/distractor_diamondtriangles.svg	7	yes	0	0	2000
6.6.0	mac	2022-09-29	14:58:50	15:04:47	356604	1	1	1	main_z	5	main_z	50	resources/stimuli/target_diamondcircles.svg	resources/stimuli/distractor_diamondtriangles.svg	23	yes	0	0	2000
6.6.0	mac	2022-09-29	14:58:50	15:04:48	357475	1	1	1	main_z	5	main_z	51	resources/stimuli/target_squarediamonds.svg	resources/stimuli/distractor_trianglediamonds.svg	4	yes	44	1	253
6.6.0	mac	2022-09-29	14:58:50	15:04:51	360090	1	1	1	main_z	5	main_z	52	resources/stimuli/distractor_diamondtriangles.svg	resources/stimuli/target_diamondcircles.svg	31	yes	0	0	2000
6.6.0	mac	2022-09-29	14:58:50	15:04:52	360966	1	1	1	main_z	5	main_z	53	resources/stimuli/target_circletriangles.svg	resources/stimuli/distractor_diamondtriangles.svg	5	yes	44	1	258
6.6.0	mac	2022-09-29	14:58:50	15:04:53	361843	1	1	1	main_z	5	main_z	54	resources/stimuli/distractor_diamondtriangles.svg	resources/stimuli/target_circletriangles.svg	13	yes	44	1	266
6.6.0	mac	2022-09-29	14:58:50	15:04:55	364461	1	1	1	main_z	5	main_z	55	resources/stimuli/distractor_trianglediamonds.svg	resources/stimuli/distractor_trianglediamonds.svg	33	no	0	1	2000
6.6.0	mac	2022-09-29	14:58:50	15:04:58	367080	1	1	1	main_z	5	main_z	56	resources/stimuli/distractor_diamondtriangles.svg	resources/stimuli/distractor_diamondtriangles.svg	39	no	0	1	2000
6.6.0	mac	2022-09-29	14:58:50	15:04:59	367967	1	1	1	main_z	5	main_z	57	resources/stimuli/target_circlediamonds.svg	resources/stimuli/distractor_diamondtriangles.svg	6	yes	44	1	269
6.6.0	mac	2022-09-29	14:58:50	15:05:01	370582	1	1	1	main_z	5	main_z	58	resources/stimuli/target_trianglesquares.svg	resources/stimuli/distractor_trianglediamonds.svg	18	yes	0	0	2000
6.6.0	mac	2022-09-29	14:58:50	15:05:02	371464	1	1	1	main_z	5	main_z	59	resources/stimuli/distractor_trianglediamonds.svg	resources/stimuli/target_diamondcircles.svg	27	yes	44	1	264
6.6.0	mac	2022-09-29	14:58:50	15:05:03	372333	1	1	1	main_z	5	main_z	60	resources/stimuli/distractor_trianglediamonds.svg	resources/stimuli/target_squarediamonds.svg	12	yes	44	1	265
6.6.0	mac	2022-09-29	14:58:50	15:05:04	373221	1	1	1	main_z	5	main_z	61	resources/stimuli/distractor_trianglediamonds.svg	resources/stimuli/target_circletriangles.svg	9	yes	44	1	268
6.6.0	mac	2022-09-29	14:58:50	15:05:06	375837	1	1	1	main_z	5	main_z	62	resources/stimuli/distractor_diamondtriangles.svg	resources/stimuli/target_trianglesquares.svg	30	yes	0	0	2000
6.6.0	mac	2022-09-29	14:58:50	15:05:07	376722	1	1	1	main_z	5	main_z	63	resources/stimuli/target_diamondsquares.svg	resources/stimuli/distractor_diamondtriangles.svg	24	yes	44	1	267
6.6.0	mac	2022-09-29	14:58:50	15:05:10	379340	1	1	1	main_z	5	main_z	64	resources/stimuli/distractor_trianglediamonds.svg	resources/stimuli/target_trianglecircles.svg	25	yes	0	0	2000
6.6.0	mac	2022-09-29	14:58:50	15:05:13	381959	1	1	1	main_z	5	main_z	65	resources/stimuli/distractor_diamondtriangles.svg	resources/stimuli/target_squaretriangles.svg	15	yes	0	0	2000
6.6.0	mac	2022-09-29	14:58:50	15:05:15	384578	1	1	1	main_z	5	main_z	66	resources/stimuli/distractor_trianglediamonds.svg	resources/stimuli/distractor_diamondtriangles.svg	35	no	0	1	2000
6.6.0	mac	2022-09-29	14:58:50	15:05:18	387196	1	1	1	main_z	5	main_z	67	resources/stimuli/distractor_trianglediamonds.svg	resources/stimuli/target_diamondsquares.svg	28	yes	0	0	2000
6.6.0	mac	2022-09-29	14:58:50	15:05:20	389815	1	1	1	main_z	5	main_z	68	resources/stimuli/target_squaretriangles.svg	resources/stimuli/distractor_trianglediamonds.svg	3	yes	0	0	2000
6.6.0	mac	2022-09-29	14:58:50	15:05:23	392434	1	1	1	main_z	5	main_z	69	resources/stimuli/distractor_diamondtriangles.svg	resources/stimuli/target_trianglecircles.svg	29	yes	0	0	2000
6.6.0	mac	2022-09-29	14:58:50	15:05:24	393320	1	1	1	main_z	5	main_z	70	resources/stimuli/distractor_diamondtriangles.svg	resources/stimuli/target_diamondsquares.svg	32	yes	44	1	267
6.6.0	mac	2022-09-29	14:58:50	15:05:27	395937	1	1	1	main_z	5	main_z	71	resources/stimuli/target_trianglecircles.svg	resources/stimuli/distractor_trianglediamonds.svg	17	yes	0	0	2000
6.6.0	mac	2022-09-29	14:58:50	15:05:29	398555	1	1	1	main_z	5	main_z	72	resources/stimuli/target_circletriangles.svg	resources/stimuli/distractor_trianglediamonds.svg	1	yes	0	0	2000
6.6.0	mac	2022-09-29	14:58:50	15:05:30	399441	1	1	1	main_z	5	main_z	73	resources/stimuli/distractor_diamondtriangles.svg	resources/stimuli/distractor_diamondtriangles.svg	40	no	44	0	267
6.6.0	mac	2022-09-29	14:58:50	15:05:31	400321	1	1	1	main_z	5	main_z	74	resources/stimuli/target_circlediamonds.svg	resources/stimuli/distractor_trianglediamonds.svg	2	yes	44	1	263
6.6.0	mac	2022-09-29	14:58:50	15:05:34	402942	1	1	1	main_z	5	main_z	75	resources/stimuli/distractor_diamondtriangles.svg	resources/stimuli/target_circlediamonds.svg	14	yes	0	0	2000
6.6.0	mac	2022-09-29	14:58:50	15:05:34	403827	1	1	1	main_z	5	main_z	76	resources/stimuli/target_trianglecircles.svg	resources/stimuli/distractor_diamondtriangles.svg	21	yes	44	1	266
6.6.0	mac	2022-09-29	14:58:50	15:05:37	406445	1	1	1	main_z	5	main_z	77	resources/stimuli/target_diamondsquares.svg	resources/stimuli/distractor_trianglediamonds.svg	20	yes	0	0	2000
6.6.0	mac	2022-09-29	14:58:50	15:05:40	409064	1	1	1	main_z	5	main_z	78	resources/stimuli/distractor_trianglediamonds.svg	resources/stimuli/target_squaretriangles.svg	11	yes	0	0	2000
6.6.0	mac	2022-09-29	14:58:50	15:05:42	411683	1	1	1	main_z	5	main_z	79	resources/stimuli/distractor_diamondtriangles.svg	resources/stimuli/distractor_trianglediamonds.svg	38	no	0	1	2000
6.6.0	mac	2022-09-29	14:58:50	15:05:43	412564	1	1	1	main_z	5	main_z	80	resources/stimuli/target_trianglesquares.svg	resources/stimuli/distractor_diamondtriangles.svg	22	yes	44	1	261
