build	computer.platform	date	time	timestamp	time_elapsed_ms	subject	group	session	blockcode	blocknum	trialcode	trialnum	stimulus_left	stimulus_right	stim_index	target_present	response	correct	latency
6.6.0	mac	2022-09-29	13:01:14	13:01:19	3451	1	1	1	practice_slash	1	practice_slash	1	resources/stimuli/distractor_trianglediamonds.svg	resources/stimuli/distractor_trianglediamonds.svg	15	no	53	0	267
6.6.0	mac	2022-09-29	13:01:14	13:01:20	4869	1	1	1	practice_slash	1	practice_slash	2	resources/stimuli/target_diamondsquares.svg	resources/stimuli/distractor_diamondtriangles.svg	3	yes	53	1	266
6.6.0	mac	2022-09-29	13:01:14	13:01:24	7988	1	1	1	practice_slash	1	practice_slash	3	resources/stimuli/distractor_trianglediamonds.svg	resources/stimuli/distractor_diamondtriangles.svg	16	no	0	1	2000
6.6.0	mac	2022-09-29	13:01:14	13:01:27	11106	1	1	1	practice_slash	1	practice_slash	4	resources/stimuli/distractor_diamondtriangles.svg	resources/stimuli/target_trianglecircles.svg	9	yes	0	0	2000
6.6.0	mac	2022-09-29	13:01:14	13:01:30	14225	1	1	1	practice_slash	1	practice_slash	5	resources/stimuli/target_circlediamonds.svg	resources/stimuli/distractor_trianglediamonds.svg	4	yes	0	0	2000
6.6.0	mac	2022-09-29	13:01:14	13:01:31	15628	1	1	1	practice_slash	1	practice_slash	6	resources/stimuli/target_squarediamonds.svg	resources/stimuli/distractor_diamondtriangles.svg	2	yes	53	1	266
6.6.0	mac	2022-09-29	13:01:14	13:01:33	17107	1	1	1	practice_slash	1	practice_slash	7	resources/stimuli/distractor_trianglediamonds.svg	resources/stimuli/target_squarediamonds.svg	11	yes	53	1	262
6.6.0	mac	2022-09-29	13:01:14	13:01:34	18480	1	1	1	practice_slash	1	practice_slash	8	resources/stimuli/distractor_diamondtriangles.svg	resources/stimuli/distractor_diamondtriangles.svg	13	no	53	0	265
6.6.0	mac	2022-09-29	13:01:14	13:01:37	21632	1	1	1	practice_slash	1	practice_slash	9	resources/stimuli/distractor_trianglediamonds.svg	resources/stimuli/target_diamondcircles.svg	12	yes	0	0	2000
6.6.0	mac	2022-09-29	13:01:14	13:01:39	23017	1	1	1	practice_slash	1	practice_slash	10	resources/stimuli/target_circlediamonds.svg	resources/stimuli/distractor_diamondtriangles.svg	1	yes	53	1	267
6.6.0	mac	2022-09-29	13:01:14	13:01:42	26135	1	1	1	practice_slash	1	practice_slash	11	resources/stimuli/distractor_trianglediamonds.svg	resources/stimuli/target_circlediamonds.svg	10	yes	0	0	2000
6.6.0	mac	2022-09-29	13:01:14	13:01:43	27574	1	1	1	practice_slash	1	practice_slash	12	resources/stimuli/distractor_diamondtriangles.svg	resources/stimuli/target_circletriangles.svg	7	yes	53	1	269
6.6.0	mac	2022-09-29	13:01:14	13:01:45	28958	1	1	1	practice_slash	1	practice_slash	13	resources/stimuli/distractor_diamondtriangles.svg	resources/stimuli/target_diamondcircles.svg	8	yes	53	1	269
6.6.0	mac	2022-09-29	13:01:14	13:01:46	30340	1	1	1	practice_slash	1	practice_slash	14	resources/stimuli/target_diamondsquares.svg	resources/stimuli/distractor_trianglediamonds.svg	6	yes	53	1	267
6.6.0	mac	2022-09-29	13:01:14	13:01:47	31725	1	1	1	practice_slash	1	practice_slash	15	resources/stimuli/distractor_diamondtriangles.svg	resources/stimuli/distractor_trianglediamonds.svg	14	no	53	0	267
6.6.0	mac	2022-09-29	13:01:14	13:01:49	33102	1	1	1	practice_slash	1	practice_slash	16	resources/stimuli/target_squarediamonds.svg	resources/stimuli/distractor_trianglediamonds.svg	5	yes	53	1	260
6.6.0	mac	2022-09-29	13:01:14	13:01:50	34843	1	1	1	main_slash	2	main_slash	1	resources/stimuli/distractor_trianglediamonds.svg	resources/stimuli/distractor_diamondtriangles.svg	36	no	53	0	264
6.6.0	mac	2022-09-29	13:01:14	13:01:53	37461	1	1	1	main_slash	2	main_slash	2	resources/stimuli/target_diamondsquares.svg	resources/stimuli/distractor_diamondtriangles.svg	24	yes	0	0	2000
6.6.0	mac	2022-09-29	13:01:14	13:01:54	38347	1	1	1	main_slash	2	main_slash	3	resources/stimuli/distractor_trianglediamonds.svg	resources/stimuli/target_trianglesquares.svg	26	yes	53	1	267
6.6.0	mac	2022-09-29	13:01:14	13:01:55	39231	1	1	1	main_slash	2	main_slash	4	resources/stimuli/target_trianglecircles.svg	resources/stimuli/distractor_trianglediamonds.svg	17	yes	53	1	267
6.6.0	mac	2022-09-29	13:01:14	13:01:56	40108	1	1	1	main_slash	2	main_slash	5	resources/stimuli/distractor_trianglediamonds.svg	resources/stimuli/target_diamondcircles.svg	27	yes	53	1	261
6.6.0	mac	2022-09-29	13:01:14	13:01:57	41009	1	1	1	main_slash	2	main_slash	6	resources/stimuli/target_squaretriangles.svg	resources/stimuli/distractor_trianglediamonds.svg	3	yes	53	1	260
6.6.0	mac	2022-09-29	13:01:14	13:01:59	43616	1	1	1	main_slash	2	main_slash	7	resources/stimuli/target_diamondcircles.svg	resources/stimuli/distractor_trianglediamonds.svg	19	yes	0	0	2000
6.6.0	mac	2022-09-29	13:01:14	13:02:02	46235	1	1	1	main_slash	2	main_slash	8	resources/stimuli/distractor_trianglediamonds.svg	resources/stimuli/target_squaretriangles.svg	11	yes	0	0	2000
6.6.0	mac	2022-09-29	13:01:14	13:02:03	47115	1	1	1	main_slash	2	main_slash	9	resources/stimuli/target_trianglesquares.svg	resources/stimuli/distractor_trianglediamonds.svg	18	yes	53	1	261
6.6.0	mac	2022-09-29	13:01:14	13:02:05	49721	1	1	1	main_slash	2	main_slash	10	resources/stimuli/distractor_diamondtriangles.svg	resources/stimuli/distractor_diamondtriangles.svg	39	no	0	1	2000
6.6.0	mac	2022-09-29	13:01:14	13:02:08	52340	1	1	1	main_slash	2	main_slash	11	resources/stimuli/distractor_trianglediamonds.svg	resources/stimuli/target_circletriangles.svg	9	yes	0	0	2000
6.6.0	mac	2022-09-29	13:01:14	13:02:11	54959	1	1	1	main_slash	2	main_slash	12	resources/stimuli/distractor_trianglediamonds.svg	resources/stimuli/target_squarediamonds.svg	12	yes	0	0	2000
6.6.0	mac	2022-09-29	13:01:14	13:02:11	55844	1	1	1	main_slash	2	main_slash	13	resources/stimuli/distractor_diamondtriangles.svg	resources/stimuli/target_circlediamonds.svg	14	yes	53	1	266
6.6.0	mac	2022-09-29	13:01:14	13:02:14	58462	1	1	1	main_slash	2	main_slash	14	resources/stimuli/target_squaretriangles.svg	resources/stimuli/distractor_diamondtriangles.svg	7	yes	0	0	2000
6.6.0	mac	2022-09-29	13:01:14	13:02:15	59347	1	1	1	main_slash	2	main_slash	15	resources/stimuli/distractor_trianglediamonds.svg	resources/stimuli/target_diamondsquares.svg	28	yes	53	1	266
6.6.0	mac	2022-09-29	13:01:14	13:02:16	60229	1	1	1	main_slash	2	main_slash	16	resources/stimuli/target_circletriangles.svg	resources/stimuli/distractor_trianglediamonds.svg	1	yes	53	1	265
6.6.0	mac	2022-09-29	13:01:14	13:02:17	61115	1	1	1	main_slash	2	main_slash	17	resources/stimuli/distractor_diamondtriangles.svg	resources/stimuli/target_squarediamonds.svg	16	yes	53	1	266
6.6.0	mac	2022-09-29	13:01:14	13:02:19	63733	1	1	1	main_slash	2	main_slash	18	resources/stimuli/target_circlediamonds.svg	resources/stimuli/distractor_trianglediamonds.svg	2	yes	0	0	2000
6.6.0	mac	2022-09-29	13:01:14	13:02:22	66352	1	1	1	main_slash	2	main_slash	19	resources/stimuli/target_squarediamonds.svg	resources/stimuli/distractor_diamondtriangles.svg	8	yes	0	0	2000
6.6.0	mac	2022-09-29	13:01:14	13:02:25	68971	1	1	1	main_slash	2	main_slash	20	resources/stimuli/target_diamondcircles.svg	resources/stimuli/distractor_diamondtriangles.svg	23	yes	0	0	2000
6.6.0	mac	2022-09-29	13:01:14	13:02:27	71589	1	1	1	main_slash	2	main_slash	21	resources/stimuli/distractor_trianglediamonds.svg	resources/stimuli/target_circlediamonds.svg	10	yes	0	0	2000
6.6.0	mac	2022-09-29	13:01:14	13:02:30	74208	1	1	1	main_slash	2	main_slash	22	resources/stimuli/distractor_trianglediamonds.svg	resources/stimuli/target_trianglecircles.svg	25	yes	0	0	2000
6.6.0	mac	2022-09-29	13:01:14	13:02:32	76827	1	1	1	main_slash	2	main_slash	23	resources/stimuli/distractor_diamondtriangles.svg	resources/stimuli/target_circletriangles.svg	13	yes	0	0	2000
6.6.0	mac	2022-09-29	13:01:14	13:02:33	77712	1	1	1	main_slash	2	main_slash	24	resources/stimuli/target_diamondsquares.svg	resources/stimuli/distractor_trianglediamonds.svg	20	yes	53	1	267
6.6.0	mac	2022-09-29	13:01:14	13:02:36	80330	1	1	1	main_slash	2	main_slash	25	resources/stimuli/distractor_diamondtriangles.svg	resources/stimuli/target_diamondcircles.svg	31	yes	0	0	2000
6.6.0	mac	2022-09-29	13:01:14	13:02:39	82949	1	1	1	main_slash	2	main_slash	26	resources/stimuli/distractor_diamondtriangles.svg	resources/stimuli/distractor_trianglediamonds.svg	38	no	0	1	2000
6.6.0	mac	2022-09-29	13:01:14	13:02:41	85568	1	1	1	main_slash	2	main_slash	27	resources/stimuli/distractor_trianglediamonds.svg	resources/stimuli/distractor_trianglediamonds.svg	33	no	0	1	2000
6.6.0	mac	2022-09-29	13:01:14	13:02:42	86442	1	1	1	main_slash	2	main_slash	28	resources/stimuli/target_squarediamonds.svg	resources/stimuli/distractor_trianglediamonds.svg	4	yes	53	1	255
6.6.0	mac	2022-09-29	13:01:14	13:02:45	89054	1	1	1	main_slash	2	main_slash	29	resources/stimuli/target_trianglesquares.svg	resources/stimuli/distractor_diamondtriangles.svg	22	yes	0	0	2000
6.6.0	mac	2022-09-29	13:01:14	13:02:46	89939	1	1	1	main_slash	2	main_slash	30	resources/stimuli/distractor_trianglediamonds.svg	resources/stimuli/distractor_diamondtriangles.svg	35	no	53	0	267
6.6.0	mac	2022-09-29	13:01:14	13:02:46	90823	1	1	1	main_slash	2	main_slash	31	resources/stimuli/target_circlediamonds.svg	resources/stimuli/distractor_diamondtriangles.svg	6	yes	53	1	267
6.6.0	mac	2022-09-29	13:01:14	13:02:47	91707	1	1	1	main_slash	2	main_slash	32	resources/stimuli/target_trianglecircles.svg	resources/stimuli/distractor_diamondtriangles.svg	21	yes	53	1	267
6.6.0	mac	2022-09-29	13:01:14	13:02:50	94325	1	1	1	main_slash	2	main_slash	33	resources/stimuli/distractor_diamondtriangles.svg	resources/stimuli/distractor_diamondtriangles.svg	40	no	0	1	2000
6.6.0	mac	2022-09-29	13:01:14	13:02:53	96944	1	1	1	main_slash	2	main_slash	34	resources/stimuli/target_circletriangles.svg	resources/stimuli/distractor_diamondtriangles.svg	5	yes	0	0	2000
6.6.0	mac	2022-09-29	13:01:14	13:02:55	99562	1	1	1	main_slash	2	main_slash	35	resources/stimuli/distractor_diamondtriangles.svg	resources/stimuli/target_diamondsquares.svg	32	yes	0	0	2000
6.6.0	mac	2022-09-29	13:01:14	13:02:56	100454	1	1	1	main_slash	2	main_slash	36	resources/stimuli/distractor_diamondtriangles.svg	resources/stimuli/target_trianglecircles.svg	29	yes	53	1	273
6.6.0	mac	2022-09-29	13:01:14	13:02:57	101332	1	1	1	main_slash	2	main_slash	37	resources/stimuli/distractor_diamondtriangles.svg	resources/stimuli/target_trianglesquares.svg	30	yes	53	1	267
6.6.0	mac	2022-09-29	13:01:14	13:02:58	102216	1	1	1	main_slash	2	main_slash	38	resources/stimuli/distractor_diamondtriangles.svg	resources/stimuli/target_squaretriangles.svg	15	yes	53	1	267
6.6.0	mac	2022-09-29	13:01:14	13:03:00	104834	1	1	1	main_slash	2	main_slash	39	resources/stimuli/distractor_trianglediamonds.svg	resources/stimuli/distractor_trianglediamonds.svg	34	no	0	1	2000
6.6.0	mac	2022-09-29	13:01:14	13:03:03	107452	1	1	1	main_slash	2	main_slash	40	resources/stimuli/distractor_diamondtriangles.svg	resources/stimuli/distractor_trianglediamonds.svg	37	no	0	1	2000
6.6.0	mac	2022-09-29	13:01:14	13:03:06	110071	1	1	1	main_slash	2	main_slash	41	resources/stimuli/distractor_diamondtriangles.svg	resources/stimuli/distractor_diamondtriangles.svg	39	no	0	1	2000
6.6.0	mac	2022-09-29	13:01:14	13:03:08	112690	1	1	1	main_slash	2	main_slash	42	resources/stimuli/distractor_diamondtriangles.svg	resources/stimuli/target_squarediamonds.svg	16	yes	0	0	2000
6.6.0	mac	2022-09-29	13:01:14	13:03:09	113575	1	1	1	main_slash	2	main_slash	43	resources/stimuli/distractor_diamondtriangles.svg	resources/stimuli/target_circletriangles.svg	13	yes	53	1	267
6.6.0	mac	2022-09-29	13:01:14	13:03:10	114503	1	1	1	main_slash	2	main_slash	44	resources/stimuli/distractor_diamondtriangles.svg	resources/stimuli/target_trianglecircles.svg	29	yes	53	1	260
6.6.0	mac	2022-09-29	13:01:14	13:03:13	117110	1	1	1	main_slash	2	main_slash	45	resources/stimuli/distractor_trianglediamonds.svg	resources/stimuli/target_diamondcircles.svg	27	yes	0	0	2000
6.6.0	mac	2022-09-29	13:01:14	13:03:14	117988	1	1	1	main_slash	2	main_slash	46	resources/stimuli/distractor_trianglediamonds.svg	resources/stimuli/target_trianglesquares.svg	26	yes	53	1	259
6.6.0	mac	2022-09-29	13:01:14	13:03:16	120596	1	1	1	main_slash	2	main_slash	47	resources/stimuli/distractor_trianglediamonds.svg	resources/stimuli/target_diamondsquares.svg	28	yes	0	0	2000
6.6.0	mac	2022-09-29	13:01:14	13:03:17	121478	1	1	1	main_slash	2	main_slash	48	resources/stimuli/target_diamondcircles.svg	resources/stimuli/distractor_diamondtriangles.svg	23	yes	53	1	263
6.6.0	mac	2022-09-29	13:01:14	13:03:20	124083	1	1	1	main_slash	2	main_slash	49	resources/stimuli/target_squaretriangles.svg	resources/stimuli/distractor_trianglediamonds.svg	3	yes	0	0	2000
6.6.0	mac	2022-09-29	13:01:14	13:03:22	126702	1	1	1	main_slash	2	main_slash	50	resources/stimuli/distractor_diamondtriangles.svg	resources/stimuli/distractor_trianglediamonds.svg	37	no	0	1	2000
6.6.0	mac	2022-09-29	13:01:14	13:03:25	129320	1	1	1	main_slash	2	main_slash	51	resources/stimuli/distractor_trianglediamonds.svg	resources/stimuli/target_squaretriangles.svg	11	yes	0	0	2000
6.6.0	mac	2022-09-29	13:01:14	13:03:26	130206	1	1	1	main_slash	2	main_slash	52	resources/stimuli/target_circletriangles.svg	resources/stimuli/distractor_trianglediamonds.svg	1	yes	53	1	267
6.6.0	mac	2022-09-29	13:01:14	13:03:28	132823	1	1	1	main_slash	2	main_slash	53	resources/stimuli/target_trianglecircles.svg	resources/stimuli/distractor_trianglediamonds.svg	17	yes	0	0	2000
6.6.0	mac	2022-09-29	13:01:14	13:03:29	133703	1	1	1	main_slash	2	main_slash	54	resources/stimuli/target_squaretriangles.svg	resources/stimuli/distractor_diamondtriangles.svg	7	yes	53	1	261
6.6.0	mac	2022-09-29	13:01:14	13:03:32	136309	1	1	1	main_slash	2	main_slash	55	resources/stimuli/distractor_trianglediamonds.svg	resources/stimuli/distractor_trianglediamonds.svg	33	no	0	1	2000
6.6.0	mac	2022-09-29	13:01:14	13:03:34	138928	1	1	1	main_slash	2	main_slash	56	resources/stimuli/target_circlediamonds.svg	resources/stimuli/distractor_trianglediamonds.svg	2	yes	0	0	2000
6.6.0	mac	2022-09-29	13:01:14	13:03:35	139813	1	1	1	main_slash	2	main_slash	57	resources/stimuli/target_diamondsquares.svg	resources/stimuli/distractor_trianglediamonds.svg	20	yes	53	1	267
6.6.0	mac	2022-09-29	13:01:14	13:03:38	142431	1	1	1	main_slash	2	main_slash	58	resources/stimuli/target_trianglesquares.svg	resources/stimuli/distractor_trianglediamonds.svg	18	yes	0	0	2000
6.6.0	mac	2022-09-29	13:01:14	13:03:39	143316	1	1	1	main_slash	2	main_slash	59	resources/stimuli/distractor_trianglediamonds.svg	resources/stimuli/target_circletriangles.svg	9	yes	53	1	266
6.6.0	mac	2022-09-29	13:01:14	13:03:41	145934	1	1	1	main_slash	2	main_slash	60	resources/stimuli/distractor_diamondtriangles.svg	resources/stimuli/target_diamondsquares.svg	32	yes	0	0	2000
6.6.0	mac	2022-09-29	13:01:14	13:03:42	146819	1	1	1	main_slash	2	main_slash	61	resources/stimuli/distractor_diamondtriangles.svg	resources/stimuli/target_diamondcircles.svg	31	yes	53	1	266
6.6.0	mac	2022-09-29	13:01:14	13:03:43	147748	1	1	1	main_slash	2	main_slash	62	resources/stimuli/target_circlediamonds.svg	resources/stimuli/distractor_diamondtriangles.svg	6	yes	53	1	262
6.6.0	mac	2022-09-29	13:01:14	13:03:44	148620	1	1	1	main_slash	2	main_slash	63	resources/stimuli/distractor_trianglediamonds.svg	resources/stimuli/target_circlediamonds.svg	10	yes	53	1	267
6.6.0	mac	2022-09-29	13:01:14	13:03:45	149537	1	1	1	main_slash	2	main_slash	64	resources/stimuli/distractor_diamondtriangles.svg	resources/stimuli/target_trianglesquares.svg	30	yes	53	1	265
6.6.0	mac	2022-09-29	13:01:14	13:03:46	150472	1	1	1	main_slash	2	main_slash	65	resources/stimuli/target_trianglecircles.svg	resources/stimuli/distractor_diamondtriangles.svg	21	yes	53	1	266
6.6.0	mac	2022-09-29	13:01:14	13:03:47	151399	1	1	1	main_slash	2	main_slash	66	resources/stimuli/target_squarediamonds.svg	resources/stimuli/distractor_diamondtriangles.svg	8	yes	53	1	258
6.6.0	mac	2022-09-29	13:01:14	13:03:48	152374	1	1	1	main_slash	2	main_slash	67	resources/stimuli/distractor_diamondtriangles.svg	resources/stimuli/target_squaretriangles.svg	15	yes	53	1	267
6.6.0	mac	2022-09-29	13:01:14	13:03:49	153258	1	1	1	main_slash	2	main_slash	68	resources/stimuli/distractor_trianglediamonds.svg	resources/stimuli/target_trianglecircles.svg	25	yes	53	1	266
6.6.0	mac	2022-09-29	13:01:14	13:03:51	155875	1	1	1	main_slash	2	main_slash	69	resources/stimuli/target_trianglesquares.svg	resources/stimuli/distractor_diamondtriangles.svg	22	yes	0	0	2000
6.6.0	mac	2022-09-29	13:01:14	13:03:52	156761	1	1	1	main_slash	2	main_slash	70	resources/stimuli/distractor_diamondtriangles.svg	resources/stimuli/distractor_diamondtriangles.svg	40	no	53	0	267
6.6.0	mac	2022-09-29	13:01:14	13:03:55	159429	1	1	1	main_slash	2	main_slash	71	resources/stimuli/target_diamondcircles.svg	resources/stimuli/distractor_trianglediamonds.svg	19	yes	0	0	2000
6.6.0	mac	2022-09-29	13:01:14	13:03:58	162047	1	1	1	main_slash	2	main_slash	72	resources/stimuli/target_squarediamonds.svg	resources/stimuli/distractor_trianglediamonds.svg	4	yes	0	0	2000
6.6.0	mac	2022-09-29	13:01:14	13:03:58	162924	1	1	1	main_slash	2	main_slash	73	resources/stimuli/distractor_trianglediamonds.svg	resources/stimuli/distractor_diamondtriangles.svg	36	no	53	0	259
6.6.0	mac	2022-09-29	13:01:14	13:03:59	163785	1	1	1	main_slash	2	main_slash	74	resources/stimuli/distractor_trianglediamonds.svg	resources/stimuli/distractor_diamondtriangles.svg	35	no	53	0	253
6.6.0	mac	2022-09-29	13:01:14	13:04:02	166401	1	1	1	main_slash	2	main_slash	75	resources/stimuli/distractor_trianglediamonds.svg	resources/stimuli/distractor_trianglediamonds.svg	34	no	0	1	2000
6.6.0	mac	2022-09-29	13:01:14	13:04:05	169020	1	1	1	main_slash	2	main_slash	76	resources/stimuli/target_diamondsquares.svg	resources/stimuli/distractor_diamondtriangles.svg	24	yes	0	0	2000
6.6.0	mac	2022-09-29	13:01:14	13:04:07	171639	1	1	1	main_slash	2	main_slash	77	resources/stimuli/distractor_trianglediamonds.svg	resources/stimuli/target_squarediamonds.svg	12	yes	0	0	2000
6.6.0	mac	2022-09-29	13:01:14	13:04:10	174257	1	1	1	main_slash	2	main_slash	78	resources/stimuli/distractor_diamondtriangles.svg	resources/stimuli/distractor_trianglediamonds.svg	38	no	0	1	2000
6.6.0	mac	2022-09-29	13:01:14	13:04:11	175143	1	1	1	main_slash	2	main_slash	79	resources/stimuli/target_circletriangles.svg	resources/stimuli/distractor_diamondtriangles.svg	5	yes	53	1	267
6.6.0	mac	2022-09-29	13:01:14	13:04:12	176027	1	1	1	main_slash	2	main_slash	80	resources/stimuli/distractor_diamondtriangles.svg	resources/stimuli/target_circlediamonds.svg	14	yes	53	1	267
6.6.0	mac	2022-09-29	13:01:14	13:04:12	176027	1	1	1	interblock_break	3	interblock_break	1	resources/stimuli/distractor_diamondtriangles.svg	resources/stimuli/target_circlediamonds.svg	14	yes	0	0	20000
6.6.0	mac	2022-09-29	13:01:14	13:04:34	198345	1	1	1	practice_z	4	practice_z	1	resources/stimuli/distractor_trianglediamonds.svg	resources/stimuli/target_diamondcircles.svg	12	yes	44	1	266
6.6.0	mac	2022-09-29	13:01:14	13:04:35	199729	1	1	1	practice_z	4	practice_z	2	resources/stimuli/distractor_diamondtriangles.svg	resources/stimuli/target_circletriangles.svg	7	yes	44	1	267
6.6.0	mac	2022-09-29	13:01:14	13:04:38	202847	1	1	1	practice_z	4	practice_z	3	resources/stimuli/distractor_diamondtriangles.svg	resources/stimuli/target_trianglecircles.svg	9	yes	0	0	2000
6.6.0	mac	2022-09-29	13:01:14	13:04:42	205967	1	1	1	practice_z	4	practice_z	4	resources/stimuli/distractor_trianglediamonds.svg	resources/stimuli/distractor_diamondtriangles.svg	16	no	0	1	2000
6.6.0	mac	2022-09-29	13:01:14	13:04:45	209086	1	1	1	practice_z	4	practice_z	5	resources/stimuli/target_squarediamonds.svg	resources/stimuli/distractor_diamondtriangles.svg	2	yes	0	0	2000
6.6.0	mac	2022-09-29	13:01:14	13:04:48	212205	1	1	1	practice_z	4	practice_z	6	resources/stimuli/distractor_trianglediamonds.svg	resources/stimuli/distractor_trianglediamonds.svg	15	no	0	1	2000
6.6.0	mac	2022-09-29	13:01:14	13:04:51	215323	1	1	1	practice_z	4	practice_z	7	resources/stimuli/target_circlediamonds.svg	resources/stimuli/distractor_trianglediamonds.svg	4	yes	0	0	2000
6.6.0	mac	2022-09-29	13:01:14	13:04:54	218443	1	1	1	practice_z	4	practice_z	8	resources/stimuli/distractor_diamondtriangles.svg	resources/stimuli/target_diamondcircles.svg	8	yes	0	0	2000
6.6.0	mac	2022-09-29	13:01:14	13:04:55	219830	1	1	1	practice_z	4	practice_z	9	resources/stimuli/target_diamondsquares.svg	resources/stimuli/distractor_diamondtriangles.svg	3	yes	44	1	267
6.6.0	mac	2022-09-29	13:01:14	13:04:57	221214	1	1	1	practice_z	4	practice_z	10	resources/stimuli/distractor_diamondtriangles.svg	resources/stimuli/distractor_trianglediamonds.svg	14	no	44	0	266
6.6.0	mac	2022-09-29	13:01:14	13:05:00	224332	1	1	1	practice_z	4	practice_z	11	resources/stimuli/target_diamondsquares.svg	resources/stimuli/distractor_trianglediamonds.svg	6	yes	0	0	2000
6.6.0	mac	2022-09-29	13:01:14	13:05:01	225745	1	1	1	practice_z	4	practice_z	12	resources/stimuli/distractor_trianglediamonds.svg	resources/stimuli/target_squarediamonds.svg	11	yes	44	1	260
6.6.0	mac	2022-09-29	13:01:14	13:05:03	227169	1	1	1	practice_z	4	practice_z	13	resources/stimuli/target_squarediamonds.svg	resources/stimuli/distractor_trianglediamonds.svg	5	yes	44	1	266
6.6.0	mac	2022-09-29	13:01:14	13:05:06	230288	1	1	1	practice_z	4	practice_z	14	resources/stimuli/target_circlediamonds.svg	resources/stimuli/distractor_diamondtriangles.svg	1	yes	0	0	2000
6.6.0	mac	2022-09-29	13:01:14	13:05:09	233407	1	1	1	practice_z	4	practice_z	15	resources/stimuli/distractor_diamondtriangles.svg	resources/stimuli/distractor_diamondtriangles.svg	13	no	0	1	2000
6.6.0	mac	2022-09-29	13:01:14	13:05:10	234795	1	1	1	practice_z	4	practice_z	16	resources/stimuli/distractor_trianglediamonds.svg	resources/stimuli/target_circlediamonds.svg	10	yes	44	1	270
6.6.0	mac	2022-09-29	13:01:14	13:05:14	238277	1	1	1	main_z	5	main_slash	1	resources/stimuli/target_circletriangles.svg	resources/stimuli/distractor_diamondtriangles.svg	5	yes	0	0	2000
6.6.0	mac	2022-09-29	13:01:14	13:05:15	239162	1	1	1	main_z	5	main_slash	2	resources/stimuli/target_circletriangles.svg	resources/stimuli/distractor_trianglediamonds.svg	1	yes	53	1	266
6.6.0	mac	2022-09-29	13:01:14	13:05:16	240096	1	1	1	main_z	5	main_slash	3	resources/stimuli/distractor_trianglediamonds.svg	resources/stimuli/target_circletriangles.svg	9	yes	53	1	266
6.6.0	mac	2022-09-29	13:01:14	13:05:17	240980	1	1	1	main_z	5	main_slash	4	resources/stimuli/distractor_trianglediamonds.svg	resources/stimuli/target_squarediamonds.svg	12	yes	53	1	266
6.6.0	mac	2022-09-29	13:01:14	13:05:17	241867	1	1	1	main_z	5	main_slash	5	resources/stimuli/target_squaretriangles.svg	resources/stimuli/distractor_diamondtriangles.svg	7	yes	53	1	269
6.6.0	mac	2022-09-29	13:01:14	13:05:20	244482	1	1	1	main_z	5	main_slash	6	resources/stimuli/distractor_trianglediamonds.svg	resources/stimuli/distractor_diamondtriangles.svg	36	no	0	1	2000
6.6.0	mac	2022-09-29	13:01:14	13:05:23	247101	1	1	1	main_z	5	main_slash	7	resources/stimuli/distractor_diamondtriangles.svg	resources/stimuli/target_diamondcircles.svg	31	yes	0	0	2000
6.6.0	mac	2022-09-29	13:01:14	13:05:25	249719	1	1	1	main_z	5	main_slash	8	resources/stimuli/distractor_diamondtriangles.svg	resources/stimuli/target_squaretriangles.svg	15	yes	0	0	2000
6.6.0	mac	2022-09-29	13:01:14	13:05:28	252339	1	1	1	main_z	5	main_slash	9	resources/stimuli/target_trianglecircles.svg	resources/stimuli/distractor_diamondtriangles.svg	21	yes	0	0	2000
6.6.0	mac	2022-09-29	13:01:14	13:05:29	253285	1	1	1	main_z	5	main_slash	10	resources/stimuli/distractor_diamondtriangles.svg	resources/stimuli/target_diamondsquares.svg	32	yes	53	1	260
6.6.0	mac	2022-09-29	13:01:14	13:05:31	255891	1	1	1	main_z	5	main_slash	11	resources/stimuli/target_trianglesquares.svg	resources/stimuli/distractor_trianglediamonds.svg	18	yes	0	0	2000
6.6.0	mac	2022-09-29	13:01:14	13:05:32	256782	1	1	1	main_z	5	main_slash	12	resources/stimuli/target_circlediamonds.svg	resources/stimuli/distractor_trianglediamonds.svg	2	yes	53	1	272
6.6.0	mac	2022-09-29	13:01:14	13:05:35	259394	1	1	1	main_z	5	main_slash	13	resources/stimuli/target_squarediamonds.svg	resources/stimuli/distractor_diamondtriangles.svg	8	yes	0	0	2000
6.6.0	mac	2022-09-29	13:01:14	13:05:36	260275	1	1	1	main_z	5	main_slash	14	resources/stimuli/target_diamondsquares.svg	resources/stimuli/distractor_trianglediamonds.svg	20	yes	53	1	263
6.6.0	mac	2022-09-29	13:01:14	13:05:37	261147	1	1	1	main_z	5	main_slash	15	resources/stimuli/distractor_trianglediamonds.svg	resources/stimuli/target_diamondsquares.svg	28	yes	53	1	267
6.6.0	mac	2022-09-29	13:01:14	13:05:38	262029	1	1	1	main_z	5	main_slash	16	resources/stimuli/distractor_trianglediamonds.svg	resources/stimuli/target_trianglesquares.svg	26	yes	53	1	264
6.6.0	mac	2022-09-29	13:01:14	13:05:38	262915	1	1	1	main_z	5	main_slash	17	resources/stimuli/target_diamondcircles.svg	resources/stimuli/distractor_diamondtriangles.svg	23	yes	53	1	267
6.6.0	mac	2022-09-29	13:01:14	13:05:41	265533	1	1	1	main_z	5	main_slash	18	resources/stimuli/distractor_trianglediamonds.svg	resources/stimuli/target_circlediamonds.svg	10	yes	0	0	2000
6.6.0	mac	2022-09-29	13:01:14	13:05:44	268152	1	1	1	main_z	5	main_slash	19	resources/stimuli/target_circlediamonds.svg	resources/stimuli/distractor_diamondtriangles.svg	6	yes	0	0	2000
6.6.0	mac	2022-09-29	13:01:14	13:05:45	269042	1	1	1	main_z	5	main_slash	20	resources/stimuli/distractor_trianglediamonds.svg	resources/stimuli/distractor_diamondtriangles.svg	35	no	53	0	271
6.6.0	mac	2022-09-29	13:01:14	13:05:45	269923	1	1	1	main_z	5	main_slash	21	resources/stimuli/distractor_trianglediamonds.svg	resources/stimuli/distractor_trianglediamonds.svg	33	no	53	0	269
6.6.0	mac	2022-09-29	13:01:14	13:05:46	270808	1	1	1	main_z	5	main_slash	22	resources/stimuli/distractor_trianglediamonds.svg	resources/stimuli/target_squaretriangles.svg	11	yes	53	1	270
6.6.0	mac	2022-09-29	13:01:14	13:05:47	271688	1	1	1	main_z	5	main_slash	23	resources/stimuli/distractor_diamondtriangles.svg	resources/stimuli/distractor_trianglediamonds.svg	38	no	53	0	267
6.6.0	mac	2022-09-29	13:01:14	13:05:50	274306	1	1	1	main_z	5	main_slash	24	resources/stimuli/distractor_diamondtriangles.svg	resources/stimuli/target_circletriangles.svg	13	yes	0	0	2000
6.6.0	mac	2022-09-29	13:01:14	13:05:52	276925	1	1	1	main_z	5	main_slash	25	resources/stimuli/target_trianglesquares.svg	resources/stimuli/distractor_diamondtriangles.svg	22	yes	0	0	2000
6.6.0	mac	2022-09-29	13:01:14	13:05:55	279543	1	1	1	main_z	5	main_slash	26	resources/stimuli/target_squaretriangles.svg	resources/stimuli/distractor_trianglediamonds.svg	3	yes	0	0	2000
6.6.0	mac	2022-09-29	13:01:14	13:05:56	280423	1	1	1	main_z	5	main_slash	27	resources/stimuli/distractor_trianglediamonds.svg	resources/stimuli/distractor_trianglediamonds.svg	34	no	53	0	261
6.6.0	mac	2022-09-29	13:01:14	13:05:59	283031	1	1	1	main_z	5	main_slash	28	resources/stimuli/target_squarediamonds.svg	resources/stimuli/distractor_trianglediamonds.svg	4	yes	0	0	2000
6.6.0	mac	2022-09-29	13:01:14	13:05:59	283916	1	1	1	main_z	5	main_slash	29	resources/stimuli/distractor_diamondtriangles.svg	resources/stimuli/distractor_diamondtriangles.svg	39	no	53	0	266
6.6.0	mac	2022-09-29	13:01:14	13:06:02	286533	1	1	1	main_z	5	main_slash	30	resources/stimuli/distractor_diamondtriangles.svg	resources/stimuli/target_trianglesquares.svg	30	yes	0	0	2000
6.6.0	mac	2022-09-29	13:01:14	13:06:03	287403	1	1	1	main_z	5	main_slash	31	resources/stimuli/distractor_trianglediamonds.svg	resources/stimuli/target_diamondcircles.svg	27	yes	53	1	252
6.6.0	mac	2022-09-29	13:01:14	13:06:06	290020	1	1	1	main_z	5	main_slash	32	resources/stimuli/target_diamondsquares.svg	resources/stimuli/distractor_diamondtriangles.svg	24	yes	0	0	2000
6.6.0	mac	2022-09-29	13:01:14	13:06:06	290907	1	1	1	main_z	5	main_slash	33	resources/stimuli/distractor_diamondtriangles.svg	resources/stimuli/target_trianglecircles.svg	29	yes	53	1	269
6.6.0	mac	2022-09-29	13:01:14	13:06:07	291788	1	1	1	main_z	5	main_slash	34	resources/stimuli/distractor_diamondtriangles.svg	resources/stimuli/target_circlediamonds.svg	14	yes	53	1	267
6.6.0	mac	2022-09-29	13:01:14	13:06:08	292723	1	1	1	main_z	5	main_slash	35	resources/stimuli/distractor_diamondtriangles.svg	resources/stimuli/target_squarediamonds.svg	16	yes	53	1	267
6.6.0	mac	2022-09-29	13:01:14	13:06:11	295341	1	1	1	main_z	5	main_slash	36	resources/stimuli/distractor_diamondtriangles.svg	resources/stimuli/distractor_trianglediamonds.svg	37	no	0	1	2000
6.6.0	mac	2022-09-29	13:01:14	13:06:14	297959	1	1	1	main_z	5	main_slash	37	resources/stimuli/distractor_trianglediamonds.svg	resources/stimuli/target_trianglecircles.svg	25	yes	0	0	2000
6.6.0	mac	2022-09-29	13:01:14	13:06:14	298866	1	1	1	main_z	5	main_slash	38	resources/stimuli/target_trianglecircles.svg	resources/stimuli/distractor_trianglediamonds.svg	17	yes	53	1	287
6.6.0	mac	2022-09-29	13:01:14	13:06:15	299759	1	1	1	main_z	5	main_slash	39	resources/stimuli/distractor_diamondtriangles.svg	resources/stimuli/distractor_diamondtriangles.svg	40	no	53	0	281
6.6.0	mac	2022-09-29	13:01:14	13:06:16	300649	1	1	1	main_z	5	main_slash	40	resources/stimuli/target_diamondcircles.svg	resources/stimuli/distractor_trianglediamonds.svg	19	yes	53	1	269
6.6.0	mac	2022-09-29	13:01:14	13:06:17	301546	1	1	1	main_z	5	main_slash	41	resources/stimuli/distractor_trianglediamonds.svg	resources/stimuli/target_trianglecircles.svg	25	yes	53	1	282
6.6.0	mac	2022-09-29	13:01:14	13:06:20	304165	1	1	1	main_z	5	main_slash	42	resources/stimuli/distractor_trianglediamonds.svg	resources/stimuli/target_squarediamonds.svg	12	yes	0	0	2000
6.6.0	mac	2022-09-29	13:01:14	13:06:22	306783	1	1	1	main_z	5	main_slash	43	resources/stimuli/target_trianglesquares.svg	resources/stimuli/distractor_trianglediamonds.svg	18	yes	0	0	2000
6.6.0	mac	2022-09-29	13:01:14	13:06:23	307680	1	1	1	main_z	5	main_slash	44	resources/stimuli/distractor_trianglediamonds.svg	resources/stimuli/target_diamondcircles.svg	27	yes	53	1	276
6.6.0	mac	2022-09-29	13:01:14	13:06:26	310286	1	1	1	main_z	5	main_slash	45	resources/stimuli/distractor_trianglediamonds.svg	resources/stimuli/target_trianglesquares.svg	26	yes	0	0	2000
6.6.0	mac	2022-09-29	13:01:14	13:06:29	312956	1	1	1	main_z	5	main_slash	46	resources/stimuli/distractor_diamondtriangles.svg	resources/stimuli/target_squarediamonds.svg	16	yes	0	0	2000
6.6.0	mac	2022-09-29	13:01:14	13:06:31	315575	1	1	1	main_z	5	main_slash	47	resources/stimuli/target_diamondcircles.svg	resources/stimuli/distractor_diamondtriangles.svg	23	yes	0	0	2000
6.6.0	mac	2022-09-29	13:01:14	13:06:34	318192	1	1	1	main_z	5	main_slash	48	resources/stimuli/distractor_trianglediamonds.svg	resources/stimuli/distractor_trianglediamonds.svg	33	no	0	1	2000
6.6.0	mac	2022-09-29	13:01:14	13:06:35	319083	1	1	1	main_z	5	main_slash	49	resources/stimuli/target_squaretriangles.svg	resources/stimuli/distractor_diamondtriangles.svg	7	yes	53	1	288
6.6.0	mac	2022-09-29	13:01:14	13:06:36	319972	1	1	1	main_z	5	main_slash	50	resources/stimuli/distractor_trianglediamonds.svg	resources/stimuli/distractor_trianglediamonds.svg	34	no	53	0	277
6.6.0	mac	2022-09-29	13:01:14	13:06:38	322580	1	1	1	main_z	5	main_slash	51	resources/stimuli/target_circlediamonds.svg	resources/stimuli/distractor_trianglediamonds.svg	2	yes	0	0	2000
6.6.0	mac	2022-09-29	13:01:14	13:06:39	323483	1	1	1	main_z	5	main_slash	52	resources/stimuli/distractor_trianglediamonds.svg	resources/stimuli/target_circletriangles.svg	9	yes	53	1	283
6.6.0	mac	2022-09-29	13:01:14	13:06:40	324392	1	1	1	main_z	5	main_slash	53	resources/stimuli/target_trianglesquares.svg	resources/stimuli/distractor_diamondtriangles.svg	22	yes	53	1	292
6.6.0	mac	2022-09-29	13:01:14	13:06:43	327000	1	1	1	main_z	5	main_slash	54	resources/stimuli/target_squarediamonds.svg	resources/stimuli/distractor_trianglediamonds.svg	4	yes	0	0	2000
6.6.0	mac	2022-09-29	13:01:14	13:06:45	329619	1	1	1	main_z	5	main_slash	55	resources/stimuli/target_circletriangles.svg	resources/stimuli/distractor_diamondtriangles.svg	5	yes	0	0	2000
6.6.0	mac	2022-09-29	13:01:14	13:06:48	332239	1	1	1	main_z	5	main_slash	56	resources/stimuli/distractor_trianglediamonds.svg	resources/stimuli/target_diamondsquares.svg	28	yes	0	0	2000
6.6.0	mac	2022-09-29	13:01:14	13:06:49	333141	1	1	1	main_z	5	main_slash	57	resources/stimuli/target_circlediamonds.svg	resources/stimuli/distractor_diamondtriangles.svg	6	yes	53	1	283
6.6.0	mac	2022-09-29	13:01:14	13:06:50	334091	1	1	1	main_z	5	main_slash	58	resources/stimuli/distractor_trianglediamonds.svg	resources/stimuli/distractor_diamondtriangles.svg	35	no	53	0	285
6.6.0	mac	2022-09-29	13:01:14	13:06:51	334981	1	1	1	main_z	5	main_slash	59	resources/stimuli/distractor_diamondtriangles.svg	resources/stimuli/target_circlediamonds.svg	14	yes	53	1	272
6.6.0	mac	2022-09-29	13:01:14	13:06:51	335884	1	1	1	main_z	5	main_slash	60	resources/stimuli/distractor_diamondtriangles.svg	resources/stimuli/distractor_diamondtriangles.svg	39	no	53	0	291
6.6.0	mac	2022-09-29	13:01:14	13:06:52	336771	1	1	1	main_z	5	main_slash	61	resources/stimuli/target_squarediamonds.svg	resources/stimuli/distractor_diamondtriangles.svg	8	yes	53	1	279
6.6.0	mac	2022-09-29	13:01:14	13:06:55	339376	1	1	1	main_z	5	main_slash	62	resources/stimuli/target_diamondsquares.svg	resources/stimuli/distractor_trianglediamonds.svg	20	yes	0	0	2000
6.6.0	mac	2022-09-29	13:01:14	13:06:56	340273	1	1	1	main_z	5	main_slash	63	resources/stimuli/target_diamondsquares.svg	resources/stimuli/distractor_diamondtriangles.svg	24	yes	53	1	278
6.6.0	mac	2022-09-29	13:01:14	13:06:58	342879	1	1	1	main_z	5	main_slash	64	resources/stimuli/distractor_diamondtriangles.svg	resources/stimuli/target_trianglesquares.svg	30	yes	0	0	2000
6.6.0	mac	2022-09-29	13:01:14	13:07:01	345500	1	1	1	main_z	5	main_slash	65	resources/stimuli/distractor_diamondtriangles.svg	resources/stimuli/distractor_trianglediamonds.svg	38	no	0	1	2000
6.6.0	mac	2022-09-29	13:01:14	13:07:02	346408	1	1	1	main_z	5	main_slash	66	resources/stimuli/target_trianglecircles.svg	resources/stimuli/distractor_trianglediamonds.svg	17	yes	53	1	289
6.6.0	mac	2022-09-29	13:01:14	13:07:03	347302	1	1	1	main_z	5	main_slash	67	resources/stimuli/distractor_trianglediamonds.svg	resources/stimuli/target_squaretriangles.svg	11	yes	53	1	283
6.6.0	mac	2022-09-29	13:01:14	13:07:04	348197	1	1	1	main_z	5	main_slash	68	resources/stimuli/distractor_diamondtriangles.svg	resources/stimuli/distractor_diamondtriangles.svg	40	no	53	0	276
6.6.0	mac	2022-09-29	13:01:14	13:07:05	349087	1	1	1	main_z	5	main_slash	69	resources/stimuli/target_diamondcircles.svg	resources/stimuli/distractor_trianglediamonds.svg	19	yes	53	1	284
6.6.0	mac	2022-09-29	13:01:14	13:07:06	349981	1	1	1	main_z	5	main_slash	70	resources/stimuli/distractor_diamondtriangles.svg	resources/stimuli/target_squaretriangles.svg	15	yes	53	1	276
6.6.0	mac	2022-09-29	13:01:14	13:07:06	350865	1	1	1	main_z	5	main_slash	71	resources/stimuli/distractor_diamondtriangles.svg	resources/stimuli/target_circletriangles.svg	13	yes	53	1	278
6.6.0	mac	2022-09-29	13:01:14	13:07:09	353472	1	1	1	main_z	5	main_slash	72	resources/stimuli/distractor_trianglediamonds.svg	resources/stimuli/target_circlediamonds.svg	10	yes	0	0	2000
6.6.0	mac	2022-09-29	13:01:14	13:07:12	356090	1	1	1	main_z	5	main_slash	73	resources/stimuli/target_circletriangles.svg	resources/stimuli/distractor_trianglediamonds.svg	1	yes	0	0	2000
6.6.0	mac	2022-09-29	13:01:14	13:07:14	358710	1	1	1	main_z	5	main_slash	74	resources/stimuli/distractor_diamondtriangles.svg	resources/stimuli/target_diamondcircles.svg	31	yes	0	0	2000
6.6.0	mac	2022-09-29	13:01:14	13:07:15	359622	1	1	1	main_z	5	main_slash	75	resources/stimuli/distractor_diamondtriangles.svg	resources/stimuli/distractor_trianglediamonds.svg	37	no	53	0	292
6.6.0	mac	2022-09-29	13:01:14	13:07:18	362229	1	1	1	main_z	5	main_slash	76	resources/stimuli/target_squaretriangles.svg	resources/stimuli/distractor_trianglediamonds.svg	3	yes	0	0	2000
6.6.0	mac	2022-09-29	13:01:14	13:07:19	363132	1	1	1	main_z	5	main_slash	77	resources/stimuli/distractor_diamondtriangles.svg	resources/stimuli/target_diamondsquares.svg	32	yes	53	1	285
6.6.0	mac	2022-09-29	13:01:14	13:07:20	364033	1	1	1	main_z	5	main_slash	78	resources/stimuli/distractor_trianglediamonds.svg	resources/stimuli/distractor_diamondtriangles.svg	36	no	53	0	284
6.6.0	mac	2022-09-29	13:01:14	13:07:22	366650	1	1	1	main_z	5	main_slash	79	resources/stimuli/distractor_diamondtriangles.svg	resources/stimuli/target_trianglecircles.svg	29	yes	0	0	2000
6.6.0	mac	2022-09-29	13:01:14	13:07:23	367562	1	1	1	main_z	5	main_slash	80	resources/stimuli/target_trianglecircles.svg	resources/stimuli/distractor_diamondtriangles.svg	21	yes	53	1	293
