build	computer.platform	date	time	timestamp	time_elapsed_ms	subject	group	session	blockcode	blocknum	trialcode	trialnum	stimulus_left	stimulus_right	stim_index	target_present	response	correct	latency
6.6.0	mac	2022-09-28	18:53:16	18:53:20	3276	1	1	1	practice_slash	1	practice_slash	1	resources/stimuli/distractor_trianglediamonds.svg	resources/stimuli/distractor_diamondtriangles.svg	16	no	53	0	266
6.6.0	mac	2022-09-28	18:53:16	18:53:21	4659	1	1	1	practice_slash	1	practice_slash	2	resources/stimuli/distractor_trianglediamonds.svg	resources/stimuli/target_circlediamonds.svg	10	yes	53	1	266
6.6.0	mac	2022-09-28	18:53:16	18:53:24	7777	1	1	1	practice_slash	1	practice_slash	3	resources/stimuli/distractor_diamondtriangles.svg	resources/stimuli/distractor_diamondtriangles.svg	13	no	0	1	2000
6.6.0	mac	2022-09-28	18:53:16	18:53:26	9160	1	1	1	practice_slash	1	practice_slash	4	resources/stimuli/target_squarediamonds.svg	resources/stimuli/distractor_trianglediamonds.svg	5	yes	53	1	264
6.6.0	mac	2022-09-28	18:53:16	18:53:27	10524	1	1	1	practice_slash	1	practice_slash	5	resources/stimuli/target_circlediamonds.svg	resources/stimuli/distractor_trianglediamonds.svg	4	yes	53	1	260
6.6.0	mac	2022-09-28	18:53:16	18:53:30	13632	1	1	1	practice_slash	1	practice_slash	6	resources/stimuli/distractor_diamondtriangles.svg	resources/stimuli/target_diamondcircles.svg	8	yes	0	0	2000
6.6.0	mac	2022-09-28	18:53:16	18:53:33	16750	1	1	1	practice_slash	1	practice_slash	7	resources/stimuli/distractor_trianglediamonds.svg	resources/stimuli/target_squarediamonds.svg	11	yes	0	0	2000
6.6.0	mac	2022-09-28	18:53:16	18:53:36	19871	1	1	1	practice_slash	1	practice_slash	8	resources/stimuli/distractor_trianglediamonds.svg	resources/stimuli/target_diamondcircles.svg	12	yes	0	0	2000
6.6.0	mac	2022-09-28	18:53:16	18:53:40	22990	1	1	1	practice_slash	1	practice_slash	9	resources/stimuli/target_circlediamonds.svg	resources/stimuli/distractor_diamondtriangles.svg	1	yes	0	0	2000
6.6.0	mac	2022-09-28	18:53:16	18:53:41	24370	1	1	1	practice_slash	1	practice_slash	10	resources/stimuli/target_diamondsquares.svg	resources/stimuli/distractor_trianglediamonds.svg	6	yes	53	1	260
6.6.0	mac	2022-09-28	18:53:16	18:53:42	25885	1	1	1	practice_slash	1	practice_slash	11	resources/stimuli/distractor_diamondtriangles.svg	resources/stimuli/distractor_trianglediamonds.svg	14	no	53	0	258
6.6.0	mac	2022-09-28	18:53:16	18:53:44	27255	1	1	1	practice_slash	1	practice_slash	12	resources/stimuli/target_diamondsquares.svg	resources/stimuli/distractor_diamondtriangles.svg	3	yes	53	1	260
6.6.0	mac	2022-09-28	18:53:16	18:53:47	30364	1	1	1	practice_slash	1	practice_slash	13	resources/stimuli/distractor_trianglediamonds.svg	resources/stimuli/distractor_trianglediamonds.svg	15	no	0	1	2000
6.6.0	mac	2022-09-28	18:53:16	18:53:50	33483	1	1	1	practice_slash	1	practice_slash	14	resources/stimuli/distractor_diamondtriangles.svg	resources/stimuli/target_trianglecircles.svg	9	yes	0	0	2000
6.6.0	mac	2022-09-28	18:53:16	18:53:53	36600	1	1	1	practice_slash	1	practice_slash	15	resources/stimuli/distractor_diamondtriangles.svg	resources/stimuli/target_circletriangles.svg	7	yes	0	0	2000
6.6.0	mac	2022-09-28	18:53:16	18:53:55	37985	1	1	1	practice_slash	1	practice_slash	16	resources/stimuli/target_squarediamonds.svg	resources/stimuli/distractor_diamondtriangles.svg	2	yes	53	1	264
6.6.0	mac	2022-09-28	18:53:16	18:53:56	39772	1	1	1	main_slash	2	main_slash	1	resources/stimuli/target_squaretriangles.svg	resources/stimuli/distractor_trianglediamonds.svg	3	yes	53	1	267
6.6.0	mac	2022-09-28	18:53:16	18:53:59	42573	1	1	1	main_slash	2	main_slash	2	resources/stimuli/target_trianglesquares.svg	resources/stimuli/distractor_diamondtriangles.svg	22	yes	0	0	2000
6.6.0	mac	2022-09-28	18:53:16	18:54:00	43458	1	1	1	main_slash	2	main_slash	3	resources/stimuli/distractor_diamondtriangles.svg	resources/stimuli/target_circletriangles.svg	13	yes	53	1	267
6.6.0	mac	2022-09-28	18:53:16	18:54:03	46076	1	1	1	main_slash	2	main_slash	4	resources/stimuli/distractor_trianglediamonds.svg	resources/stimuli/target_diamondcircles.svg	27	yes	0	0	2000
6.6.0	mac	2022-09-28	18:53:16	18:54:05	48695	1	1	1	main_slash	2	main_slash	5	resources/stimuli/target_trianglesquares.svg	resources/stimuli/distractor_trianglediamonds.svg	18	yes	0	0	2000
6.6.0	mac	2022-09-28	18:53:16	18:54:06	49811	1	1	1	main_slash	2	main_slash	6	resources/stimuli/distractor_diamondtriangles.svg	resources/stimuli/distractor_diamondtriangles.svg	40	no	53	0	265
6.6.0	mac	2022-09-28	18:53:16	18:54:09	52431	1	1	1	main_slash	2	main_slash	7	resources/stimuli/target_diamondsquares.svg	resources/stimuli/distractor_trianglediamonds.svg	20	yes	0	0	2000
6.6.0	mac	2022-09-28	18:53:16	18:54:12	55050	1	1	1	main_slash	2	main_slash	8	resources/stimuli/target_squarediamonds.svg	resources/stimuli/distractor_trianglediamonds.svg	4	yes	0	0	2000
6.6.0	mac	2022-09-28	18:53:16	18:54:12	55941	1	1	1	main_slash	2	main_slash	9	resources/stimuli/distractor_diamondtriangles.svg	resources/stimuli/target_diamondsquares.svg	32	yes	53	1	272
6.6.0	mac	2022-09-28	18:53:16	18:54:13	56813	1	1	1	main_slash	2	main_slash	10	resources/stimuli/distractor_trianglediamonds.svg	resources/stimuli/target_trianglecircles.svg	25	yes	53	1	260
6.6.0	mac	2022-09-28	18:53:16	18:54:14	57687	1	1	1	main_slash	2	main_slash	11	resources/stimuli/target_squarediamonds.svg	resources/stimuli/distractor_diamondtriangles.svg	8	yes	53	1	267
6.6.0	mac	2022-09-28	18:53:16	18:54:15	58573	1	1	1	main_slash	2	main_slash	12	resources/stimuli/distractor_diamondtriangles.svg	resources/stimuli/distractor_diamondtriangles.svg	39	no	53	0	269
6.6.0	mac	2022-09-28	18:53:16	18:54:18	61188	1	1	1	main_slash	2	main_slash	13	resources/stimuli/distractor_trianglediamonds.svg	resources/stimuli/distractor_trianglediamonds.svg	33	no	0	1	2000
6.6.0	mac	2022-09-28	18:53:16	18:54:19	62074	1	1	1	main_slash	2	main_slash	14	resources/stimuli/target_diamondcircles.svg	resources/stimuli/distractor_diamondtriangles.svg	23	yes	53	1	266
6.6.0	mac	2022-09-28	18:53:16	18:54:21	64691	1	1	1	main_slash	2	main_slash	15	resources/stimuli/distractor_trianglediamonds.svg	resources/stimuli/target_diamondsquares.svg	28	yes	0	0	2000
6.6.0	mac	2022-09-28	18:53:16	18:54:22	65570	1	1	1	main_slash	2	main_slash	16	resources/stimuli/distractor_diamondtriangles.svg	resources/stimuli/distractor_trianglediamonds.svg	37	no	53	0	260
6.6.0	mac	2022-09-28	18:53:16	18:54:23	66444	1	1	1	main_slash	2	main_slash	17	resources/stimuli/distractor_trianglediamonds.svg	resources/stimuli/distractor_trianglediamonds.svg	34	no	53	0	266
6.6.0	mac	2022-09-28	18:53:16	18:54:26	69061	1	1	1	main_slash	2	main_slash	18	resources/stimuli/target_circlediamonds.svg	resources/stimuli/distractor_trianglediamonds.svg	2	yes	0	0	2000
6.6.0	mac	2022-09-28	18:53:16	18:54:26	69943	1	1	1	main_slash	2	main_slash	19	resources/stimuli/target_diamondsquares.svg	resources/stimuli/distractor_diamondtriangles.svg	24	yes	53	1	263
6.6.0	mac	2022-09-28	18:53:16	18:54:29	72547	1	1	1	main_slash	2	main_slash	20	resources/stimuli/target_diamondcircles.svg	resources/stimuli/distractor_trianglediamonds.svg	19	yes	0	0	2000
6.6.0	mac	2022-09-28	18:53:16	18:54:30	73438	1	1	1	main_slash	2	main_slash	21	resources/stimuli/target_squaretriangles.svg	resources/stimuli/distractor_diamondtriangles.svg	7	yes	53	1	271
6.6.0	mac	2022-09-28	18:53:16	18:54:31	74318	1	1	1	main_slash	2	main_slash	22	resources/stimuli/distractor_diamondtriangles.svg	resources/stimuli/distractor_trianglediamonds.svg	38	no	53	0	267
6.6.0	mac	2022-09-28	18:53:16	18:54:32	75203	1	1	1	main_slash	2	main_slash	23	resources/stimuli/distractor_trianglediamonds.svg	resources/stimuli/target_circletriangles.svg	9	yes	53	1	268
6.6.0	mac	2022-09-28	18:53:16	18:54:33	76087	1	1	1	main_slash	2	main_slash	24	resources/stimuli/distractor_diamondtriangles.svg	resources/stimuli/target_circlediamonds.svg	14	yes	53	1	269
6.6.0	mac	2022-09-28	18:53:16	18:54:34	76970	1	1	1	main_slash	2	main_slash	25	resources/stimuli/target_circletriangles.svg	resources/stimuli/distractor_diamondtriangles.svg	5	yes	53	1	267
6.6.0	mac	2022-09-28	18:53:16	18:54:34	77854	1	1	1	main_slash	2	main_slash	26	resources/stimuli/target_trianglecircles.svg	resources/stimuli/distractor_diamondtriangles.svg	21	yes	53	1	267
6.6.0	mac	2022-09-28	18:53:16	18:54:37	80471	1	1	1	main_slash	2	main_slash	27	resources/stimuli/distractor_trianglediamonds.svg	resources/stimuli/distractor_diamondtriangles.svg	35	no	0	1	2000
6.6.0	mac	2022-09-28	18:53:16	18:54:38	81357	1	1	1	main_slash	2	main_slash	28	resources/stimuli/target_circletriangles.svg	resources/stimuli/distractor_trianglediamonds.svg	1	yes	53	1	267
6.6.0	mac	2022-09-28	18:53:16	18:54:39	82241	1	1	1	main_slash	2	main_slash	29	resources/stimuli/distractor_trianglediamonds.svg	resources/stimuli/target_trianglesquares.svg	26	yes	53	1	267
6.6.0	mac	2022-09-28	18:53:16	18:54:40	83121	1	1	1	main_slash	2	main_slash	30	resources/stimuli/distractor_diamondtriangles.svg	resources/stimuli/target_diamondcircles.svg	31	yes	53	1	263
6.6.0	mac	2022-09-28	18:53:16	18:54:42	85725	1	1	1	main_slash	2	main_slash	31	resources/stimuli/distractor_trianglediamonds.svg	resources/stimuli/target_squaretriangles.svg	11	yes	0	0	2000
6.6.0	mac	2022-09-28	18:53:16	18:54:43	86604	1	1	1	main_slash	2	main_slash	32	resources/stimuli/distractor_diamondtriangles.svg	resources/stimuli/target_squarediamonds.svg	16	yes	53	1	259
6.6.0	mac	2022-09-28	18:53:16	18:54:46	89211	1	1	1	main_slash	2	main_slash	33	resources/stimuli/distractor_diamondtriangles.svg	resources/stimuli/target_squaretriangles.svg	15	yes	0	0	2000
6.6.0	mac	2022-09-28	18:53:16	18:54:47	90102	1	1	1	main_slash	2	main_slash	34	resources/stimuli/distractor_trianglediamonds.svg	resources/stimuli/target_squarediamonds.svg	12	yes	53	1	272
6.6.0	mac	2022-09-28	18:53:16	18:54:49	92714	1	1	1	main_slash	2	main_slash	35	resources/stimuli/distractor_trianglediamonds.svg	resources/stimuli/target_circlediamonds.svg	10	yes	0	0	2000
6.6.0	mac	2022-09-28	18:53:16	18:54:50	93593	1	1	1	main_slash	2	main_slash	36	resources/stimuli/target_circlediamonds.svg	resources/stimuli/distractor_diamondtriangles.svg	6	yes	53	1	260
6.6.0	mac	2022-09-28	18:53:16	18:54:51	94467	1	1	1	main_slash	2	main_slash	37	resources/stimuli/distractor_trianglediamonds.svg	resources/stimuli/distractor_diamondtriangles.svg	36	no	53	0	267
6.6.0	mac	2022-09-28	18:53:16	18:54:52	95350	1	1	1	main_slash	2	main_slash	38	resources/stimuli/distractor_diamondtriangles.svg	resources/stimuli/target_trianglesquares.svg	30	yes	53	1	267
6.6.0	mac	2022-09-28	18:53:16	18:54:53	96235	1	1	1	main_slash	2	main_slash	39	resources/stimuli/distractor_diamondtriangles.svg	resources/stimuli/target_trianglecircles.svg	29	yes	53	1	267
6.6.0	mac	2022-09-28	18:53:16	18:54:54	97122	1	1	1	main_slash	2	main_slash	40	resources/stimuli/target_trianglecircles.svg	resources/stimuli/distractor_trianglediamonds.svg	17	yes	53	1	270
6.6.0	mac	2022-09-28	18:53:16	18:54:56	99737	1	1	1	main_slash	2	main_slash	41	resources/stimuli/target_circletriangles.svg	resources/stimuli/distractor_diamondtriangles.svg	5	yes	0	0	2000
6.6.0	mac	2022-09-28	18:53:16	18:54:59	102356	1	1	1	main_slash	2	main_slash	42	resources/stimuli/target_diamondcircles.svg	resources/stimuli/distractor_diamondtriangles.svg	23	yes	0	0	2000
6.6.0	mac	2022-09-28	18:53:16	18:55:02	104974	1	1	1	main_slash	2	main_slash	43	resources/stimuli/distractor_trianglediamonds.svg	resources/stimuli/target_trianglecircles.svg	25	yes	0	0	2000
6.6.0	mac	2022-09-28	18:53:16	18:55:02	105856	1	1	1	main_slash	2	main_slash	44	resources/stimuli/distractor_trianglediamonds.svg	resources/stimuli/target_circletriangles.svg	9	yes	53	1	262
6.6.0	mac	2022-09-28	18:53:16	18:55:05	108461	1	1	1	main_slash	2	main_slash	45	resources/stimuli/distractor_trianglediamonds.svg	resources/stimuli/distractor_trianglediamonds.svg	34	no	0	1	2000
6.6.0	mac	2022-09-28	18:53:16	18:55:06	109346	1	1	1	main_slash	2	main_slash	46	resources/stimuli/distractor_diamondtriangles.svg	resources/stimuli/target_circletriangles.svg	13	yes	53	1	267
6.6.0	mac	2022-09-28	18:53:16	18:55:09	111964	1	1	1	main_slash	2	main_slash	47	resources/stimuli/distractor_trianglediamonds.svg	resources/stimuli/distractor_diamondtriangles.svg	36	no	0	1	2000
6.6.0	mac	2022-09-28	18:53:16	18:55:11	114583	1	1	1	main_slash	2	main_slash	48	resources/stimuli/distractor_diamondtriangles.svg	resources/stimuli/distractor_trianglediamonds.svg	37	no	0	1	2000
6.6.0	mac	2022-09-28	18:53:16	18:55:14	117201	1	1	1	main_slash	2	main_slash	49	resources/stimuli/distractor_diamondtriangles.svg	resources/stimuli/target_squarediamonds.svg	16	yes	0	0	2000
6.6.0	mac	2022-09-28	18:53:16	18:55:15	118087	1	1	1	main_slash	2	main_slash	50	resources/stimuli/distractor_trianglediamonds.svg	resources/stimuli/distractor_diamondtriangles.svg	35	no	53	0	267
6.6.0	mac	2022-09-28	18:53:16	18:55:16	118972	1	1	1	main_slash	2	main_slash	51	resources/stimuli/distractor_trianglediamonds.svg	resources/stimuli/distractor_trianglediamonds.svg	33	no	53	0	268
6.6.0	mac	2022-09-28	18:53:16	18:55:18	121588	1	1	1	main_slash	2	main_slash	52	resources/stimuli/distractor_diamondtriangles.svg	resources/stimuli/target_trianglesquares.svg	30	yes	0	0	2000
6.6.0	mac	2022-09-28	18:53:16	18:55:21	124207	1	1	1	main_slash	2	main_slash	53	resources/stimuli/target_trianglesquares.svg	resources/stimuli/distractor_diamondtriangles.svg	22	yes	0	0	2000
6.6.0	mac	2022-09-28	18:53:16	18:55:22	125090	1	1	1	main_slash	2	main_slash	54	resources/stimuli/target_circlediamonds.svg	resources/stimuli/distractor_trianglediamonds.svg	2	yes	53	1	265
6.6.0	mac	2022-09-28	18:53:16	18:55:23	125973	1	1	1	main_slash	2	main_slash	55	resources/stimuli/target_diamondcircles.svg	resources/stimuli/distractor_trianglediamonds.svg	19	yes	53	1	264
6.6.0	mac	2022-09-28	18:53:16	18:55:23	126861	1	1	1	main_slash	2	main_slash	56	resources/stimuli/distractor_diamondtriangles.svg	resources/stimuli/target_diamondsquares.svg	32	yes	53	1	267
6.6.0	mac	2022-09-28	18:53:16	18:55:24	127745	1	1	1	main_slash	2	main_slash	57	resources/stimuli/target_trianglesquares.svg	resources/stimuli/distractor_trianglediamonds.svg	18	yes	53	1	267
6.6.0	mac	2022-09-28	18:53:16	18:55:25	128663	1	1	1	main_slash	2	main_slash	58	resources/stimuli/distractor_trianglediamonds.svg	resources/stimuli/target_circlediamonds.svg	10	yes	53	1	267
6.6.0	mac	2022-09-28	18:53:16	18:55:28	131279	1	1	1	main_slash	2	main_slash	59	resources/stimuli/distractor_diamondtriangles.svg	resources/stimuli/distractor_diamondtriangles.svg	39	no	0	1	2000
6.6.0	mac	2022-09-28	18:53:16	18:55:30	133899	1	1	1	main_slash	2	main_slash	60	resources/stimuli/distractor_trianglediamonds.svg	resources/stimuli/target_squarediamonds.svg	12	yes	0	0	2000
6.6.0	mac	2022-09-28	18:53:16	18:55:31	134782	1	1	1	main_slash	2	main_slash	61	resources/stimuli/distractor_trianglediamonds.svg	resources/stimuli/target_squaretriangles.svg	11	yes	53	1	265
6.6.0	mac	2022-09-28	18:53:16	18:55:34	137451	1	1	1	main_slash	2	main_slash	62	resources/stimuli/distractor_diamondtriangles.svg	resources/stimuli/distractor_trianglediamonds.svg	38	no	0	1	2000
6.6.0	mac	2022-09-28	18:53:16	18:55:37	140070	1	1	1	main_slash	2	main_slash	63	resources/stimuli/distractor_trianglediamonds.svg	resources/stimuli/target_trianglesquares.svg	26	yes	0	0	2000
6.6.0	mac	2022-09-28	18:53:16	18:55:39	142689	1	1	1	main_slash	2	main_slash	64	resources/stimuli/target_diamondsquares.svg	resources/stimuli/distractor_diamondtriangles.svg	24	yes	0	0	2000
6.6.0	mac	2022-09-28	18:53:16	18:55:40	143567	1	1	1	main_slash	2	main_slash	65	resources/stimuli/target_trianglecircles.svg	resources/stimuli/distractor_diamondtriangles.svg	21	yes	53	1	260
6.6.0	mac	2022-09-28	18:53:16	18:55:43	146175	1	1	1	main_slash	2	main_slash	66	resources/stimuli/target_diamondsquares.svg	resources/stimuli/distractor_trianglediamonds.svg	20	yes	0	0	2000
6.6.0	mac	2022-09-28	18:53:16	18:55:44	147063	1	1	1	main_slash	2	main_slash	67	resources/stimuli/distractor_diamondtriangles.svg	resources/stimuli/target_circlediamonds.svg	14	yes	53	1	270
6.6.0	mac	2022-09-28	18:53:16	18:55:44	147943	1	1	1	main_slash	2	main_slash	68	resources/stimuli/target_squarediamonds.svg	resources/stimuli/distractor_trianglediamonds.svg	4	yes	53	1	265
6.6.0	mac	2022-09-28	18:53:16	18:55:45	148822	1	1	1	main_slash	2	main_slash	69	resources/stimuli/target_circlediamonds.svg	resources/stimuli/distractor_diamondtriangles.svg	6	yes	53	1	260
6.6.0	mac	2022-09-28	18:53:16	18:55:48	151429	1	1	1	main_slash	2	main_slash	70	resources/stimuli/target_circletriangles.svg	resources/stimuli/distractor_trianglediamonds.svg	1	yes	0	0	2000
6.6.0	mac	2022-09-28	18:53:16	18:55:49	152314	1	1	1	main_slash	2	main_slash	71	resources/stimuli/distractor_trianglediamonds.svg	resources/stimuli/target_diamondcircles.svg	27	yes	53	1	265
6.6.0	mac	2022-09-28	18:53:16	18:55:51	154933	1	1	1	main_slash	2	main_slash	72	resources/stimuli/distractor_diamondtriangles.svg	resources/stimuli/target_squaretriangles.svg	15	yes	0	0	2000
6.6.0	mac	2022-09-28	18:53:16	18:55:52	155816	1	1	1	main_slash	2	main_slash	73	resources/stimuli/distractor_diamondtriangles.svg	resources/stimuli/distractor_diamondtriangles.svg	40	no	53	0	264
6.6.0	mac	2022-09-28	18:53:16	18:55:53	156698	1	1	1	main_slash	2	main_slash	74	resources/stimuli/distractor_diamondtriangles.svg	resources/stimuli/target_diamondcircles.svg	31	yes	53	1	264
6.6.0	mac	2022-09-28	18:53:16	18:55:54	157564	1	1	1	main_slash	2	main_slash	75	resources/stimuli/distractor_trianglediamonds.svg	resources/stimuli/target_diamondsquares.svg	28	yes	53	1	262
6.6.0	mac	2022-09-28	18:53:16	18:55:55	158437	1	1	1	main_slash	2	main_slash	76	resources/stimuli/distractor_diamondtriangles.svg	resources/stimuli/target_trianglecircles.svg	29	yes	53	1	267
6.6.0	mac	2022-09-28	18:53:16	18:55:56	159321	1	1	1	main_slash	2	main_slash	77	resources/stimuli/target_squaretriangles.svg	resources/stimuli/distractor_trianglediamonds.svg	3	yes	53	1	267
6.6.0	mac	2022-09-28	18:53:16	18:55:58	161938	1	1	1	main_slash	2	main_slash	78	resources/stimuli/target_trianglecircles.svg	resources/stimuli/distractor_trianglediamonds.svg	17	yes	0	0	2000
6.6.0	mac	2022-09-28	18:53:16	18:56:01	164557	1	1	1	main_slash	2	main_slash	79	resources/stimuli/target_squarediamonds.svg	resources/stimuli/distractor_diamondtriangles.svg	8	yes	0	0	2000
6.6.0	mac	2022-09-28	18:53:16	18:56:02	165441	1	1	1	main_slash	2	main_slash	80	resources/stimuli/target_squaretriangles.svg	resources/stimuli/distractor_diamondtriangles.svg	7	yes	53	1	267
6.6.0	mac	2022-09-28	18:53:16	18:56:02	165441	1	1	1	interblock_break	3	interblock_break	1	resources/stimuli/target_squaretriangles.svg	resources/stimuli/distractor_diamondtriangles.svg	7	yes	0	0	1000
6.6.0	mac	2022-09-28	18:53:16	18:56:05	168742	1	1	1	practice_z	4	practice_z	1	resources/stimuli/distractor_trianglediamonds.svg	resources/stimuli/target_squarediamonds.svg	11	yes	44	1	263
6.6.0	mac	2022-09-28	18:53:16	18:56:08	171863	1	1	1	practice_z	4	practice_z	2	resources/stimuli/distractor_trianglediamonds.svg	resources/stimuli/distractor_trianglediamonds.svg	15	no	0	1	2000
6.6.0	mac	2022-09-28	18:53:16	18:56:12	174983	1	1	1	practice_z	4	practice_z	3	resources/stimuli/distractor_diamondtriangles.svg	resources/stimuli/distractor_diamondtriangles.svg	13	no	0	1	2000
6.6.0	mac	2022-09-28	18:53:16	18:56:15	178102	1	1	1	practice_z	4	practice_z	4	resources/stimuli/distractor_trianglediamonds.svg	resources/stimuli/distractor_diamondtriangles.svg	16	no	0	1	2000
6.6.0	mac	2022-09-28	18:53:16	18:56:16	179487	1	1	1	practice_z	4	practice_z	5	resources/stimuli/target_squarediamonds.svg	resources/stimuli/distractor_diamondtriangles.svg	2	yes	44	1	266
6.6.0	mac	2022-09-28	18:53:16	18:56:19	182605	1	1	1	practice_z	4	practice_z	6	resources/stimuli/distractor_diamondtriangles.svg	resources/stimuli/distractor_trianglediamonds.svg	14	no	0	1	2000
6.6.0	mac	2022-09-28	18:53:16	18:56:22	185725	1	1	1	practice_z	4	practice_z	7	resources/stimuli/target_circlediamonds.svg	resources/stimuli/distractor_trianglediamonds.svg	4	yes	0	0	2000
6.6.0	mac	2022-09-28	18:53:16	18:56:24	187108	1	1	1	practice_z	4	practice_z	8	resources/stimuli/target_diamondsquares.svg	resources/stimuli/distractor_diamondtriangles.svg	3	yes	44	1	264
6.6.0	mac	2022-09-28	18:53:16	18:56:27	190229	1	1	1	practice_z	4	practice_z	9	resources/stimuli/distractor_trianglediamonds.svg	resources/stimuli/target_circlediamonds.svg	10	yes	0	0	2000
6.6.0	mac	2022-09-28	18:53:16	18:56:28	191617	1	1	1	practice_z	4	practice_z	10	resources/stimuli/target_diamondsquares.svg	resources/stimuli/distractor_trianglediamonds.svg	6	yes	44	1	270
6.6.0	mac	2022-09-28	18:53:16	18:56:30	192998	1	1	1	practice_z	4	practice_z	11	resources/stimuli/distractor_diamondtriangles.svg	resources/stimuli/target_diamondcircles.svg	8	yes	44	1	267
6.6.0	mac	2022-09-28	18:53:16	18:56:33	196117	1	1	1	practice_z	4	practice_z	12	resources/stimuli/target_circlediamonds.svg	resources/stimuli/distractor_diamondtriangles.svg	1	yes	0	0	2000
6.6.0	mac	2022-09-28	18:53:16	18:56:36	199236	1	1	1	practice_z	4	practice_z	13	resources/stimuli/distractor_diamondtriangles.svg	resources/stimuli/target_circletriangles.svg	7	yes	0	0	2000
6.6.0	mac	2022-09-28	18:53:16	18:56:37	200621	1	1	1	practice_z	4	practice_z	14	resources/stimuli/distractor_diamondtriangles.svg	resources/stimuli/target_trianglecircles.svg	9	yes	44	1	266
6.6.0	mac	2022-09-28	18:53:16	18:56:39	202002	1	1	1	practice_z	4	practice_z	15	resources/stimuli/distractor_trianglediamonds.svg	resources/stimuli/target_diamondcircles.svg	12	yes	44	1	263
6.6.0	mac	2022-09-28	18:53:16	18:56:40	203373	1	1	1	practice_z	4	practice_z	16	resources/stimuli/target_squarediamonds.svg	resources/stimuli/distractor_trianglediamonds.svg	5	yes	44	1	267
6.6.0	mac	2022-09-28	18:53:16	18:56:42	205130	1	1	1	main_z	5	main_slash	1	resources/stimuli/distractor_trianglediamonds.svg	resources/stimuli/target_diamondcircles.svg	27	yes	53	1	271
6.6.0	mac	2022-09-28	18:53:16	18:56:43	206002	1	1	1	main_z	5	main_slash	2	resources/stimuli/distractor_trianglediamonds.svg	resources/stimuli/target_circlediamonds.svg	10	yes	53	1	260
6.6.0	mac	2022-09-28	18:53:16	18:56:45	208610	1	1	1	main_z	5	main_slash	3	resources/stimuli/target_circletriangles.svg	resources/stimuli/distractor_trianglediamonds.svg	1	yes	0	0	2000
6.6.0	mac	2022-09-28	18:53:16	18:56:48	211229	1	1	1	main_z	5	main_slash	4	resources/stimuli/distractor_diamondtriangles.svg	resources/stimuli/target_squarediamonds.svg	16	yes	0	0	2000
6.6.0	mac	2022-09-28	18:53:16	18:56:50	213848	1	1	1	main_z	5	main_slash	5	resources/stimuli/distractor_trianglediamonds.svg	resources/stimuli/distractor_trianglediamonds.svg	34	no	0	1	2000
6.6.0	mac	2022-09-28	18:53:16	18:56:51	214732	1	1	1	main_z	5	main_slash	6	resources/stimuli/distractor_trianglediamonds.svg	resources/stimuli/target_squaretriangles.svg	11	yes	53	1	267
6.6.0	mac	2022-09-28	18:53:16	18:56:54	217351	1	1	1	main_z	5	main_slash	7	resources/stimuli/target_circlediamonds.svg	resources/stimuli/distractor_diamondtriangles.svg	6	yes	0	0	2000
6.6.0	mac	2022-09-28	18:53:16	18:56:55	218230	1	1	1	main_z	5	main_slash	8	resources/stimuli/target_trianglecircles.svg	resources/stimuli/distractor_trianglediamonds.svg	17	yes	53	1	261
6.6.0	mac	2022-09-28	18:53:16	18:56:56	219106	1	1	1	main_z	5	main_slash	9	resources/stimuli/target_diamondcircles.svg	resources/stimuli/distractor_diamondtriangles.svg	23	yes	53	1	270
6.6.0	mac	2022-09-28	18:53:16	18:56:57	219991	1	1	1	main_z	5	main_slash	10	resources/stimuli/distractor_trianglediamonds.svg	resources/stimuli/distractor_diamondtriangles.svg	36	no	53	0	270
6.6.0	mac	2022-09-28	18:53:16	18:56:57	220875	1	1	1	main_z	5	main_slash	11	resources/stimuli/target_squaretriangles.svg	resources/stimuli/distractor_diamondtriangles.svg	7	yes	53	1	271
6.6.0	mac	2022-09-28	18:53:16	18:56:58	221757	1	1	1	main_z	5	main_slash	12	resources/stimuli/target_diamondcircles.svg	resources/stimuli/distractor_trianglediamonds.svg	19	yes	53	1	269
6.6.0	mac	2022-09-28	18:53:16	18:57:01	224373	1	1	1	main_z	5	main_slash	13	resources/stimuli/distractor_trianglediamonds.svg	resources/stimuli/target_trianglesquares.svg	26	yes	0	0	2000
6.6.0	mac	2022-09-28	18:53:16	18:57:02	225258	1	1	1	main_z	5	main_slash	14	resources/stimuli/distractor_diamondtriangles.svg	resources/stimuli/target_trianglecircles.svg	29	yes	53	1	267
6.6.0	mac	2022-09-28	18:53:16	18:57:04	227876	1	1	1	main_z	5	main_slash	15	resources/stimuli/target_squaretriangles.svg	resources/stimuli/distractor_trianglediamonds.svg	3	yes	0	0	2000
6.6.0	mac	2022-09-28	18:53:16	18:57:05	228761	1	1	1	main_z	5	main_slash	16	resources/stimuli/distractor_diamondtriangles.svg	resources/stimuli/target_diamondcircles.svg	31	yes	53	1	267
6.6.0	mac	2022-09-28	18:53:16	18:57:06	229639	1	1	1	main_z	5	main_slash	17	resources/stimuli/target_diamondsquares.svg	resources/stimuli/distractor_trianglediamonds.svg	20	yes	53	1	260
6.6.0	mac	2022-09-28	18:53:16	18:57:07	230512	1	1	1	main_z	5	main_slash	18	resources/stimuli/target_squarediamonds.svg	resources/stimuli/distractor_diamondtriangles.svg	8	yes	53	1	267
6.6.0	mac	2022-09-28	18:53:16	18:57:10	233130	1	1	1	main_z	5	main_slash	19	resources/stimuli/distractor_diamondtriangles.svg	resources/stimuli/distractor_diamondtriangles.svg	39	no	0	1	2000
6.6.0	mac	2022-09-28	18:53:16	18:57:11	234016	1	1	1	main_z	5	main_slash	20	resources/stimuli/distractor_diamondtriangles.svg	resources/stimuli/target_diamondsquares.svg	32	yes	53	1	267
6.6.0	mac	2022-09-28	18:53:16	18:57:11	234898	1	1	1	main_z	5	main_slash	21	resources/stimuli/target_trianglesquares.svg	resources/stimuli/distractor_diamondtriangles.svg	22	yes	53	1	265
6.6.0	mac	2022-09-28	18:53:16	18:57:14	237517	1	1	1	main_z	5	main_slash	22	resources/stimuli/distractor_trianglediamonds.svg	resources/stimuli/target_trianglecircles.svg	25	yes	0	0	2000
6.6.0	mac	2022-09-28	18:53:16	18:57:15	238401	1	1	1	main_z	5	main_slash	23	resources/stimuli/distractor_trianglediamonds.svg	resources/stimuli/target_diamondsquares.svg	28	yes	53	1	267
6.6.0	mac	2022-09-28	18:53:16	18:57:18	241020	1	1	1	main_z	5	main_slash	24	resources/stimuli/distractor_diamondtriangles.svg	resources/stimuli/distractor_trianglediamonds.svg	37	no	0	1	2000
6.6.0	mac	2022-09-28	18:53:16	18:57:18	241899	1	1	1	main_z	5	main_slash	25	resources/stimuli/target_trianglecircles.svg	resources/stimuli/distractor_diamondtriangles.svg	21	yes	53	1	260
6.6.0	mac	2022-09-28	18:53:16	18:57:21	244506	1	1	1	main_z	5	main_slash	26	resources/stimuli/distractor_diamondtriangles.svg	resources/stimuli/target_circlediamonds.svg	14	yes	0	0	2000
6.6.0	mac	2022-09-28	18:53:16	18:57:22	245386	1	1	1	main_z	5	main_slash	27	resources/stimuli/target_squarediamonds.svg	resources/stimuli/distractor_trianglediamonds.svg	4	yes	53	1	262
6.6.0	mac	2022-09-28	18:53:16	18:57:23	246258	1	1	1	main_z	5	main_slash	28	resources/stimuli/target_circletriangles.svg	resources/stimuli/distractor_diamondtriangles.svg	5	yes	53	1	267
6.6.0	mac	2022-09-28	18:53:16	18:57:24	247143	1	1	1	main_z	5	main_slash	29	resources/stimuli/distractor_trianglediamonds.svg	resources/stimuli/distractor_diamondtriangles.svg	35	no	53	0	266
6.6.0	mac	2022-09-28	18:53:16	18:57:26	249760	1	1	1	main_z	5	main_slash	30	resources/stimuli/target_circlediamonds.svg	resources/stimuli/distractor_trianglediamonds.svg	2	yes	0	0	2000
6.6.0	mac	2022-09-28	18:53:16	18:57:27	250646	1	1	1	main_z	5	main_slash	31	resources/stimuli/distractor_diamondtriangles.svg	resources/stimuli/distractor_trianglediamonds.svg	38	no	53	0	266
6.6.0	mac	2022-09-28	18:53:16	18:57:30	253263	1	1	1	main_z	5	main_slash	32	resources/stimuli/distractor_trianglediamonds.svg	resources/stimuli/target_circletriangles.svg	9	yes	0	0	2000
6.6.0	mac	2022-09-28	18:53:16	18:57:32	255882	1	1	1	main_z	5	main_slash	33	resources/stimuli/target_trianglesquares.svg	resources/stimuli/distractor_trianglediamonds.svg	18	yes	0	0	2000
6.6.0	mac	2022-09-28	18:53:16	18:57:35	258501	1	1	1	main_z	5	main_slash	34	resources/stimuli/distractor_diamondtriangles.svg	resources/stimuli/target_trianglesquares.svg	30	yes	0	0	2000
6.6.0	mac	2022-09-28	18:53:16	18:57:36	259387	1	1	1	main_z	5	main_slash	35	resources/stimuli/distractor_trianglediamonds.svg	resources/stimuli/target_squarediamonds.svg	12	yes	53	1	267
6.6.0	mac	2022-09-28	18:53:16	18:57:37	260266	1	1	1	main_z	5	main_slash	36	resources/stimuli/distractor_diamondtriangles.svg	resources/stimuli/target_squaretriangles.svg	15	yes	53	1	262
6.6.0	mac	2022-09-28	18:53:16	18:57:38	261138	1	1	1	main_z	5	main_slash	37	resources/stimuli/distractor_trianglediamonds.svg	resources/stimuli/distractor_trianglediamonds.svg	33	no	53	0	266
6.6.0	mac	2022-09-28	18:53:16	18:57:39	262019	1	1	1	main_z	5	main_slash	38	resources/stimuli/distractor_diamondtriangles.svg	resources/stimuli/target_circletriangles.svg	13	yes	53	1	263
6.6.0	mac	2022-09-28	18:53:16	18:57:41	264622	1	1	1	main_z	5	main_slash	39	resources/stimuli/distractor_diamondtriangles.svg	resources/stimuli/distractor_diamondtriangles.svg	40	no	0	1	2000
6.6.0	mac	2022-09-28	18:53:16	18:57:42	265508	1	1	1	main_z	5	main_slash	40	resources/stimuli/target_diamondsquares.svg	resources/stimuli/distractor_diamondtriangles.svg	24	yes	53	1	267
6.6.0	mac	2022-09-28	18:53:16	18:57:43	266392	1	1	1	main_z	5	main_slash	41	resources/stimuli/distractor_diamondtriangles.svg	resources/stimuli/distractor_trianglediamonds.svg	37	no	53	0	267
6.6.0	mac	2022-09-28	18:53:16	18:57:44	267275	1	1	1	main_z	5	main_slash	42	resources/stimuli/distractor_diamondtriangles.svg	resources/stimuli/target_circlediamonds.svg	14	yes	53	1	265
6.6.0	mac	2022-09-28	18:53:16	18:57:46	269894	1	1	1	main_z	5	main_slash	43	resources/stimuli/distractor_trianglediamonds.svg	resources/stimuli/target_squaretriangles.svg	11	yes	0	0	2000
6.6.0	mac	2022-09-28	18:53:16	18:57:49	272513	1	1	1	main_z	5	main_slash	44	resources/stimuli/target_trianglesquares.svg	resources/stimuli/distractor_trianglediamonds.svg	18	yes	0	0	2000
6.6.0	mac	2022-09-28	18:53:16	18:57:52	275131	1	1	1	main_z	5	main_slash	45	resources/stimuli/target_diamondcircles.svg	resources/stimuli/distractor_trianglediamonds.svg	19	yes	0	0	2000
6.6.0	mac	2022-09-28	18:53:16	18:57:54	277750	1	1	1	main_z	5	main_slash	46	resources/stimuli/distractor_diamondtriangles.svg	resources/stimuli/distractor_trianglediamonds.svg	38	no	0	1	2000
6.6.0	mac	2022-09-28	18:53:16	18:57:57	280369	1	1	1	main_z	5	main_slash	47	resources/stimuli/target_trianglesquares.svg	resources/stimuli/distractor_diamondtriangles.svg	22	yes	0	0	2000
6.6.0	mac	2022-09-28	18:53:16	18:58:00	282987	1	1	1	main_z	5	main_slash	48	resources/stimuli/distractor_diamondtriangles.svg	resources/stimuli/target_circletriangles.svg	13	yes	0	0	2000
6.6.0	mac	2022-09-28	18:53:16	18:58:00	283873	1	1	1	main_z	5	main_slash	49	resources/stimuli/distractor_diamondtriangles.svg	resources/stimuli/target_squaretriangles.svg	15	yes	53	1	267
6.6.0	mac	2022-09-28	18:53:16	18:58:03	286491	1	1	1	main_z	5	main_slash	50	resources/stimuli/distractor_diamondtriangles.svg	resources/stimuli/target_trianglecircles.svg	29	yes	0	0	2000
6.6.0	mac	2022-09-28	18:53:16	18:58:06	289110	1	1	1	main_z	5	main_slash	51	resources/stimuli/distractor_diamondtriangles.svg	resources/stimuli/distractor_diamondtriangles.svg	39	no	0	1	2000
6.6.0	mac	2022-09-28	18:53:16	18:58:07	289995	1	1	1	main_z	5	main_slash	52	resources/stimuli/distractor_diamondtriangles.svg	resources/stimuli/target_diamondcircles.svg	31	yes	53	1	266
6.6.0	mac	2022-09-28	18:53:16	18:58:07	290876	1	1	1	main_z	5	main_slash	53	resources/stimuli/target_circlediamonds.svg	resources/stimuli/distractor_trianglediamonds.svg	2	yes	53	1	264
6.6.0	mac	2022-09-28	18:53:16	18:58:10	293480	1	1	1	main_z	5	main_slash	54	resources/stimuli/distractor_trianglediamonds.svg	resources/stimuli/target_diamondsquares.svg	28	yes	0	0	2000
6.6.0	mac	2022-09-28	18:53:16	18:58:13	296099	1	1	1	main_z	5	main_slash	55	resources/stimuli/target_diamondcircles.svg	resources/stimuli/distractor_diamondtriangles.svg	23	yes	0	0	2000
6.6.0	mac	2022-09-28	18:53:16	18:58:14	296984	1	1	1	main_z	5	main_slash	56	resources/stimuli/distractor_trianglediamonds.svg	resources/stimuli/target_circletriangles.svg	9	yes	53	1	267
6.6.0	mac	2022-09-28	18:53:16	18:58:16	299602	1	1	1	main_z	5	main_slash	57	resources/stimuli/distractor_trianglediamonds.svg	resources/stimuli/distractor_trianglediamonds.svg	34	no	0	1	2000
6.6.0	mac	2022-09-28	18:53:16	18:58:17	300483	1	1	1	main_z	5	main_slash	58	resources/stimuli/target_squarediamonds.svg	resources/stimuli/distractor_trianglediamonds.svg	4	yes	53	1	262
6.6.0	mac	2022-09-28	18:53:16	18:58:18	301354	1	1	1	main_z	5	main_slash	59	resources/stimuli/distractor_trianglediamonds.svg	resources/stimuli/target_diamondcircles.svg	27	yes	53	1	267
6.6.0	mac	2022-09-28	18:53:16	18:58:19	302238	1	1	1	main_z	5	main_slash	60	resources/stimuli/target_squarediamonds.svg	resources/stimuli/distractor_diamondtriangles.svg	8	yes	53	1	267
6.6.0	mac	2022-09-28	18:53:16	18:58:20	303118	1	1	1	main_z	5	main_slash	61	resources/stimuli/distractor_trianglediamonds.svg	resources/stimuli/target_circlediamonds.svg	10	yes	53	1	262
6.6.0	mac	2022-09-28	18:53:16	18:58:22	305724	1	1	1	main_z	5	main_slash	62	resources/stimuli/distractor_trianglediamonds.svg	resources/stimuli/target_squarediamonds.svg	12	yes	0	0	2000
6.6.0	mac	2022-09-28	18:53:16	18:58:23	306609	1	1	1	main_z	5	main_slash	63	resources/stimuli/distractor_diamondtriangles.svg	resources/stimuli/target_trianglesquares.svg	30	yes	53	1	266
6.6.0	mac	2022-09-28	18:53:16	18:58:24	307492	1	1	1	main_z	5	main_slash	64	resources/stimuli/distractor_diamondtriangles.svg	resources/stimuli/distractor_diamondtriangles.svg	40	no	53	0	266
6.6.0	mac	2022-09-28	18:53:16	18:58:25	308378	1	1	1	main_z	5	main_slash	65	resources/stimuli/target_trianglecircles.svg	resources/stimuli/distractor_trianglediamonds.svg	17	yes	53	1	268
6.6.0	mac	2022-09-28	18:53:16	18:58:28	310995	1	1	1	main_z	5	main_slash	66	resources/stimuli/distractor_diamondtriangles.svg	resources/stimuli/target_squarediamonds.svg	16	yes	0	0	2000
6.6.0	mac	2022-09-28	18:53:16	18:58:30	313613	1	1	1	main_z	5	main_slash	67	resources/stimuli/distractor_diamondtriangles.svg	resources/stimuli/target_diamondsquares.svg	32	yes	0	0	2000
6.6.0	mac	2022-09-28	18:53:16	18:58:31	314499	1	1	1	main_z	5	main_slash	68	resources/stimuli/target_circlediamonds.svg	resources/stimuli/distractor_diamondtriangles.svg	6	yes	53	1	267
6.6.0	mac	2022-09-28	18:53:16	18:58:32	315383	1	1	1	main_z	5	main_slash	69	resources/stimuli/target_circletriangles.svg	resources/stimuli/distractor_trianglediamonds.svg	1	yes	53	1	268
6.6.0	mac	2022-09-28	18:53:16	18:58:33	316268	1	1	1	main_z	5	main_slash	70	resources/stimuli/target_squaretriangles.svg	resources/stimuli/distractor_trianglediamonds.svg	3	yes	53	1	267
6.6.0	mac	2022-09-28	18:53:16	18:58:35	318884	1	1	1	main_z	5	main_slash	71	resources/stimuli/distractor_trianglediamonds.svg	resources/stimuli/distractor_trianglediamonds.svg	33	no	0	1	2000
6.6.0	mac	2022-09-28	18:53:16	18:58:38	321502	1	1	1	main_z	5	main_slash	72	resources/stimuli/distractor_trianglediamonds.svg	resources/stimuli/distractor_diamondtriangles.svg	36	no	0	1	2000
6.6.0	mac	2022-09-28	18:53:16	18:58:39	322388	1	1	1	main_z	5	main_slash	73	resources/stimuli/target_squaretriangles.svg	resources/stimuli/distractor_diamondtriangles.svg	7	yes	53	1	267
6.6.0	mac	2022-09-28	18:53:16	18:58:42	325006	1	1	1	main_z	5	main_slash	74	resources/stimuli/target_diamondsquares.svg	resources/stimuli/distractor_diamondtriangles.svg	24	yes	0	0	2000
6.6.0	mac	2022-09-28	18:53:16	18:58:42	325891	1	1	1	main_z	5	main_slash	75	resources/stimuli/distractor_trianglediamonds.svg	resources/stimuli/target_trianglecircles.svg	25	yes	53	1	267
6.6.0	mac	2022-09-28	18:53:16	18:58:43	326775	1	1	1	main_z	5	main_slash	76	resources/stimuli/target_trianglecircles.svg	resources/stimuli/distractor_diamondtriangles.svg	21	yes	53	1	267
6.6.0	mac	2022-09-28	18:53:16	18:58:46	329393	1	1	1	main_z	5	main_slash	77	resources/stimuli/target_diamondsquares.svg	resources/stimuli/distractor_trianglediamonds.svg	20	yes	0	0	2000
6.6.0	mac	2022-09-28	18:53:16	18:58:49	332012	1	1	1	main_z	5	main_slash	78	resources/stimuli/target_circletriangles.svg	resources/stimuli/distractor_diamondtriangles.svg	5	yes	0	0	2000
6.6.0	mac	2022-09-28	18:53:16	18:58:51	334631	1	1	1	main_z	5	main_slash	79	resources/stimuli/distractor_trianglediamonds.svg	resources/stimuli/target_trianglesquares.svg	26	yes	0	0	2000
6.6.0	mac	2022-09-28	18:53:16	18:58:52	335516	1	1	1	main_z	5	main_slash	80	resources/stimuli/distractor_trianglediamonds.svg	resources/stimuli/distractor_diamondtriangles.svg	35	no	53	0	266
