build	computer.platform	date	time	timestamp	time_elapsed_ms	subject	group	session	blockcode	blocknum	trialcode	trialnum	stimulus_left	stimulus_right	stim_index	target_present	response	correct	latency
6.6.0	mac	2022-09-29	17:34:18	17:34:22	3215	1	1	1	practice_slash	1	practice_slash	1	resources/stimuli/distractor_diamondtriangles.svg	resources/stimuli/target_circletriangles.svg	7	yes	53	1	261
6.6.0	mac	2022-09-29	17:34:18	17:34:25	6388	1	1	1	practice_slash	1	practice_slash	2	resources/stimuli/target_squarediamonds.svg	resources/stimuli/distractor_trianglediamonds.svg	5	yes	0	0	2000
6.6.0	mac	2022-09-29	17:34:18	17:34:28	9507	1	1	1	practice_slash	1	practice_slash	3	resources/stimuli/distractor_trianglediamonds.svg	resources/stimuli/target_squarediamonds.svg	11	yes	0	0	2000
6.6.0	mac	2022-09-29	17:34:18	17:34:29	10894	1	1	1	practice_slash	1	practice_slash	4	resources/stimuli/distractor_diamondtriangles.svg	resources/stimuli/target_trianglecircles.svg	9	yes	53	1	267
6.6.0	mac	2022-09-29	17:34:18	17:34:32	14011	1	1	1	practice_slash	1	practice_slash	5	resources/stimuli/distractor_diamondtriangles.svg	resources/stimuli/distractor_diamondtriangles.svg	13	no	0	1	2000
6.6.0	mac	2022-09-29	17:34:18	17:34:34	15392	1	1	1	practice_slash	1	practice_slash	6	resources/stimuli/distractor_trianglediamonds.svg	resources/stimuli/distractor_diamondtriangles.svg	16	no	53	0	262
6.6.0	mac	2022-09-29	17:34:18	17:34:35	16815	1	1	1	practice_slash	1	practice_slash	7	resources/stimuli/target_circlediamonds.svg	resources/stimuli/distractor_trianglediamonds.svg	4	yes	53	1	267
6.6.0	mac	2022-09-29	17:34:18	17:34:38	19932	1	1	1	practice_slash	1	practice_slash	8	resources/stimuli/target_squarediamonds.svg	resources/stimuli/distractor_diamondtriangles.svg	2	yes	0	0	2000
6.6.0	mac	2022-09-29	17:34:18	17:34:40	21311	1	1	1	practice_slash	1	practice_slash	9	resources/stimuli/distractor_diamondtriangles.svg	resources/stimuli/distractor_trianglediamonds.svg	14	no	53	0	259
6.6.0	mac	2022-09-29	17:34:18	17:34:43	24419	1	1	1	practice_slash	1	practice_slash	10	resources/stimuli/distractor_trianglediamonds.svg	resources/stimuli/distractor_trianglediamonds.svg	15	no	0	1	2000
6.6.0	mac	2022-09-29	17:34:18	17:34:44	25801	1	1	1	practice_slash	1	practice_slash	11	resources/stimuli/target_circlediamonds.svg	resources/stimuli/distractor_diamondtriangles.svg	1	yes	53	1	263
6.6.0	mac	2022-09-29	17:34:18	17:34:47	28956	1	1	1	practice_slash	1	practice_slash	12	resources/stimuli/distractor_trianglediamonds.svg	resources/stimuli/target_diamondcircles.svg	12	yes	0	0	2000
6.6.0	mac	2022-09-29	17:34:18	17:34:51	32176	1	1	1	practice_slash	1	practice_slash	13	resources/stimuli/target_diamondsquares.svg	resources/stimuli/distractor_diamondtriangles.svg	3	yes	0	0	2000
6.6.0	mac	2022-09-29	17:34:18	17:34:52	33558	1	1	1	practice_slash	1	practice_slash	14	resources/stimuli/distractor_diamondtriangles.svg	resources/stimuli/target_diamondcircles.svg	8	yes	53	1	263
6.6.0	mac	2022-09-29	17:34:18	17:34:53	34945	1	1	1	practice_slash	1	practice_slash	15	resources/stimuli/distractor_trianglediamonds.svg	resources/stimuli/target_circlediamonds.svg	10	yes	53	1	265
6.6.0	mac	2022-09-29	17:34:18	17:34:55	36325	1	1	1	practice_slash	1	practice_slash	16	resources/stimuli/target_diamondsquares.svg	resources/stimuli/distractor_trianglediamonds.svg	6	yes	53	1	261
6.6.0	mac	2022-09-29	17:34:18	17:34:58	39819	1	1	1	main_slash	2	main_slash	1	resources/stimuli/distractor_trianglediamonds.svg	resources/stimuli/target_diamondsquares.svg	28	yes	0	0	2000
6.6.0	mac	2022-09-29	17:34:18	17:34:59	40734	1	1	1	main_slash	2	main_slash	2	resources/stimuli/distractor_diamondtriangles.svg	resources/stimuli/target_squaretriangles.svg	15	yes	53	1	267
6.6.0	mac	2022-09-29	17:34:18	17:35:02	43352	1	1	1	main_slash	2	main_slash	3	resources/stimuli/target_squaretriangles.svg	resources/stimuli/distractor_diamondtriangles.svg	7	yes	0	0	2000
6.6.0	mac	2022-09-29	17:34:18	17:35:04	45988	1	1	1	main_slash	2	main_slash	4	resources/stimuli/target_trianglesquares.svg	resources/stimuli/distractor_diamondtriangles.svg	22	yes	0	0	2000
6.6.0	mac	2022-09-29	17:34:18	17:35:07	48606	1	1	1	main_slash	2	main_slash	5	resources/stimuli/distractor_trianglediamonds.svg	resources/stimuli/distractor_trianglediamonds.svg	34	no	0	1	2000
6.6.0	mac	2022-09-29	17:34:18	17:35:10	51224	1	1	1	main_slash	2	main_slash	6	resources/stimuli/target_diamondcircles.svg	resources/stimuli/distractor_diamondtriangles.svg	23	yes	0	0	2000
6.6.0	mac	2022-09-29	17:34:18	17:35:12	53844	1	1	1	main_slash	2	main_slash	7	resources/stimuli/distractor_diamondtriangles.svg	resources/stimuli/distractor_diamondtriangles.svg	40	no	0	1	2000
6.6.0	mac	2022-09-29	17:34:18	17:35:13	54729	1	1	1	main_slash	2	main_slash	8	resources/stimuli/distractor_diamondtriangles.svg	resources/stimuli/distractor_trianglediamonds.svg	37	no	53	0	267
6.6.0	mac	2022-09-29	17:34:18	17:35:14	55613	1	1	1	main_slash	2	main_slash	9	resources/stimuli/distractor_trianglediamonds.svg	resources/stimuli/target_diamondcircles.svg	27	yes	53	1	267
6.6.0	mac	2022-09-29	17:34:18	17:35:17	58230	1	1	1	main_slash	2	main_slash	10	resources/stimuli/target_circletriangles.svg	resources/stimuli/distractor_diamondtriangles.svg	5	yes	0	0	2000
6.6.0	mac	2022-09-29	17:34:18	17:35:19	60850	1	1	1	main_slash	2	main_slash	11	resources/stimuli/distractor_trianglediamonds.svg	resources/stimuli/target_circlediamonds.svg	10	yes	0	0	2000
6.6.0	mac	2022-09-29	17:34:18	17:35:22	63469	1	1	1	main_slash	2	main_slash	12	resources/stimuli/target_squarediamonds.svg	resources/stimuli/distractor_diamondtriangles.svg	8	yes	0	0	2000
6.6.0	mac	2022-09-29	17:34:18	17:35:25	66087	1	1	1	main_slash	2	main_slash	13	resources/stimuli/distractor_trianglediamonds.svg	resources/stimuli/distractor_diamondtriangles.svg	35	no	0	1	2000
6.6.0	mac	2022-09-29	17:34:18	17:35:27	68706	1	1	1	main_slash	2	main_slash	14	resources/stimuli/distractor_trianglediamonds.svg	resources/stimuli/target_squaretriangles.svg	11	yes	0	0	2000
6.6.0	mac	2022-09-29	17:34:18	17:35:30	71325	1	1	1	main_slash	2	main_slash	15	resources/stimuli/target_trianglecircles.svg	resources/stimuli/distractor_trianglediamonds.svg	17	yes	0	0	2000
6.6.0	mac	2022-09-29	17:34:18	17:35:31	72211	1	1	1	main_slash	2	main_slash	16	resources/stimuli/target_trianglecircles.svg	resources/stimuli/distractor_diamondtriangles.svg	21	yes	53	1	267
6.6.0	mac	2022-09-29	17:34:18	17:35:33	74828	1	1	1	main_slash	2	main_slash	17	resources/stimuli/distractor_diamondtriangles.svg	resources/stimuli/target_circlediamonds.svg	14	yes	0	0	2000
6.6.0	mac	2022-09-29	17:34:18	17:35:36	77446	1	1	1	main_slash	2	main_slash	18	resources/stimuli/target_squarediamonds.svg	resources/stimuli/distractor_trianglediamonds.svg	4	yes	0	0	2000
6.6.0	mac	2022-09-29	17:34:18	17:35:37	78336	1	1	1	main_slash	2	main_slash	19	resources/stimuli/distractor_diamondtriangles.svg	resources/stimuli/distractor_trianglediamonds.svg	38	no	53	0	270
6.6.0	mac	2022-09-29	17:34:18	17:35:39	80949	1	1	1	main_slash	2	main_slash	20	resources/stimuli/distractor_diamondtriangles.svg	resources/stimuli/target_trianglesquares.svg	30	yes	0	0	2000
6.6.0	mac	2022-09-29	17:34:18	17:35:42	83602	1	1	1	main_slash	2	main_slash	21	resources/stimuli/distractor_diamondtriangles.svg	resources/stimuli/target_diamondsquares.svg	32	yes	0	0	2000
6.6.0	mac	2022-09-29	17:34:18	17:35:45	86221	1	1	1	main_slash	2	main_slash	22	resources/stimuli/target_circlediamonds.svg	resources/stimuli/distractor_diamondtriangles.svg	6	yes	0	0	2000
6.6.0	mac	2022-09-29	17:34:18	17:35:47	88840	1	1	1	main_slash	2	main_slash	23	resources/stimuli/distractor_diamondtriangles.svg	resources/stimuli/target_diamondcircles.svg	31	yes	0	0	2000
6.6.0	mac	2022-09-29	17:34:18	17:35:50	91458	1	1	1	main_slash	2	main_slash	24	resources/stimuli/distractor_trianglediamonds.svg	resources/stimuli/target_squarediamonds.svg	12	yes	0	0	2000
6.6.0	mac	2022-09-29	17:34:18	17:35:53	94077	1	1	1	main_slash	2	main_slash	25	resources/stimuli/target_circlediamonds.svg	resources/stimuli/distractor_trianglediamonds.svg	2	yes	0	0	2000
6.6.0	mac	2022-09-29	17:34:18	17:35:55	96696	1	1	1	main_slash	2	main_slash	26	resources/stimuli/target_circletriangles.svg	resources/stimuli/distractor_trianglediamonds.svg	1	yes	0	0	2000
6.6.0	mac	2022-09-29	17:34:18	17:35:56	97585	1	1	1	main_slash	2	main_slash	27	resources/stimuli/distractor_diamondtriangles.svg	resources/stimuli/target_circletriangles.svg	13	yes	53	1	270
6.6.0	mac	2022-09-29	17:34:18	17:35:59	100199	1	1	1	main_slash	2	main_slash	28	resources/stimuli/target_diamondsquares.svg	resources/stimuli/distractor_trianglediamonds.svg	20	yes	0	0	2000
6.6.0	mac	2022-09-29	17:34:18	17:36:01	102951	1	1	1	main_slash	2	main_slash	29	resources/stimuli/distractor_trianglediamonds.svg	resources/stimuli/distractor_trianglediamonds.svg	33	no	0	1	2000
6.6.0	mac	2022-09-29	17:34:18	17:36:04	105570	1	1	1	main_slash	2	main_slash	30	resources/stimuli/distractor_trianglediamonds.svg	resources/stimuli/target_trianglecircles.svg	25	yes	0	0	2000
6.6.0	mac	2022-09-29	17:34:18	17:36:07	108189	1	1	1	main_slash	2	main_slash	31	resources/stimuli/target_squaretriangles.svg	resources/stimuli/distractor_trianglediamonds.svg	3	yes	0	0	2000
6.6.0	mac	2022-09-29	17:34:18	17:36:09	110808	1	1	1	main_slash	2	main_slash	32	resources/stimuli/target_diamondsquares.svg	resources/stimuli/distractor_diamondtriangles.svg	24	yes	0	0	2000
6.6.0	mac	2022-09-29	17:34:18	17:36:12	113426	1	1	1	main_slash	2	main_slash	33	resources/stimuli/target_diamondcircles.svg	resources/stimuli/distractor_trianglediamonds.svg	19	yes	0	0	2000
6.6.0	mac	2022-09-29	17:34:18	17:36:15	116045	1	1	1	main_slash	2	main_slash	34	resources/stimuli/distractor_trianglediamonds.svg	resources/stimuli/distractor_diamondtriangles.svg	36	no	0	1	2000
6.6.0	mac	2022-09-29	17:34:18	17:36:17	118664	1	1	1	main_slash	2	main_slash	35	resources/stimuli/distractor_diamondtriangles.svg	resources/stimuli/target_squarediamonds.svg	16	yes	0	0	2000
6.6.0	mac	2022-09-29	17:34:18	17:36:20	121283	1	1	1	main_slash	2	main_slash	36	resources/stimuli/distractor_trianglediamonds.svg	resources/stimuli/target_trianglesquares.svg	26	yes	0	0	2000
6.6.0	mac	2022-09-29	17:34:18	17:36:22	123901	1	1	1	main_slash	2	main_slash	37	resources/stimuli/distractor_diamondtriangles.svg	resources/stimuli/distractor_diamondtriangles.svg	39	no	0	1	2000
6.6.0	mac	2022-09-29	17:34:18	17:36:25	126520	1	1	1	main_slash	2	main_slash	38	resources/stimuli/distractor_diamondtriangles.svg	resources/stimuli/target_trianglecircles.svg	29	yes	0	0	2000
6.6.0	mac	2022-09-29	17:34:18	17:36:28	129139	1	1	1	main_slash	2	main_slash	39	resources/stimuli/distractor_trianglediamonds.svg	resources/stimuli/target_circletriangles.svg	9	yes	0	0	2000
6.6.0	mac	2022-09-29	17:34:18	17:36:28	130031	1	1	1	main_slash	2	main_slash	40	resources/stimuli/target_trianglesquares.svg	resources/stimuli/distractor_trianglediamonds.svg	18	yes	53	1	273
6.6.0	mac	2022-09-29	17:34:18	17:36:31	132643	1	1	1	main_slash	2	main_slash	41	resources/stimuli/target_diamondcircles.svg	resources/stimuli/distractor_trianglediamonds.svg	19	yes	0	0	2000
6.6.0	mac	2022-09-29	17:34:18	17:36:32	133530	1	1	1	main_slash	2	main_slash	42	resources/stimuli/distractor_diamondtriangles.svg	resources/stimuli/target_diamondcircles.svg	31	yes	53	1	270
6.6.0	mac	2022-09-29	17:34:18	17:36:33	134414	1	1	1	main_slash	2	main_slash	43	resources/stimuli/distractor_diamondtriangles.svg	resources/stimuli/distractor_diamondtriangles.svg	39	no	53	0	269
6.6.0	mac	2022-09-29	17:34:18	17:36:35	137029	1	1	1	main_slash	2	main_slash	44	resources/stimuli/distractor_diamondtriangles.svg	resources/stimuli/distractor_diamondtriangles.svg	40	no	0	1	2000
6.6.0	mac	2022-09-29	17:34:18	17:36:36	137915	1	1	1	main_slash	2	main_slash	45	resources/stimuli/target_squaretriangles.svg	resources/stimuli/distractor_trianglediamonds.svg	3	yes	53	1	267
6.6.0	mac	2022-09-29	17:34:18	17:36:37	138802	1	1	1	main_slash	2	main_slash	46	resources/stimuli/distractor_diamondtriangles.svg	resources/stimuli/distractor_trianglediamonds.svg	38	no	53	0	269
6.6.0	mac	2022-09-29	17:34:18	17:36:38	139677	1	1	1	main_slash	2	main_slash	47	resources/stimuli/target_squaretriangles.svg	resources/stimuli/distractor_diamondtriangles.svg	7	yes	53	1	261
6.6.0	mac	2022-09-29	17:34:18	17:36:41	142284	1	1	1	main_slash	2	main_slash	48	resources/stimuli/target_circletriangles.svg	resources/stimuli/distractor_trianglediamonds.svg	1	yes	0	0	2000
6.6.0	mac	2022-09-29	17:34:18	17:36:43	144902	1	1	1	main_slash	2	main_slash	49	resources/stimuli/target_squarediamonds.svg	resources/stimuli/distractor_diamondtriangles.svg	8	yes	0	0	2000
6.6.0	mac	2022-09-29	17:34:18	17:36:46	147521	1	1	1	main_slash	2	main_slash	50	resources/stimuli/distractor_diamondtriangles.svg	resources/stimuli/target_trianglecircles.svg	29	yes	0	0	2000
6.6.0	mac	2022-09-29	17:34:18	17:36:49	150140	1	1	1	main_slash	2	main_slash	51	resources/stimuli/target_circlediamonds.svg	resources/stimuli/distractor_trianglediamonds.svg	2	yes	0	0	2000
6.6.0	mac	2022-09-29	17:34:18	17:36:51	152758	1	1	1	main_slash	2	main_slash	52	resources/stimuli/target_diamondcircles.svg	resources/stimuli/distractor_diamondtriangles.svg	23	yes	0	0	2000
6.6.0	mac	2022-09-29	17:34:18	17:36:52	153644	1	1	1	main_slash	2	main_slash	53	resources/stimuli/distractor_trianglediamonds.svg	resources/stimuli/target_trianglesquares.svg	26	yes	53	1	268
6.6.0	mac	2022-09-29	17:34:18	17:36:55	156261	1	1	1	main_slash	2	main_slash	54	resources/stimuli/distractor_trianglediamonds.svg	resources/stimuli/distractor_diamondtriangles.svg	36	no	0	1	2000
6.6.0	mac	2022-09-29	17:34:18	17:36:57	158880	1	1	1	main_slash	2	main_slash	55	resources/stimuli/distractor_trianglediamonds.svg	resources/stimuli/target_trianglecircles.svg	25	yes	0	0	2000
6.6.0	mac	2022-09-29	17:34:18	17:37:00	161499	1	1	1	main_slash	2	main_slash	56	resources/stimuli/distractor_trianglediamonds.svg	resources/stimuli/distractor_diamondtriangles.svg	35	no	0	1	2000
6.6.0	mac	2022-09-29	17:34:18	17:37:01	162379	1	1	1	main_slash	2	main_slash	57	resources/stimuli/distractor_diamondtriangles.svg	resources/stimuli/target_circlediamonds.svg	14	yes	53	1	261
6.6.0	mac	2022-09-29	17:34:18	17:37:02	163254	1	1	1	main_slash	2	main_slash	58	resources/stimuli/distractor_trianglediamonds.svg	resources/stimuli/target_squaretriangles.svg	11	yes	53	1	268
6.6.0	mac	2022-09-29	17:34:18	17:37:04	165869	1	1	1	main_slash	2	main_slash	59	resources/stimuli/distractor_diamondtriangles.svg	resources/stimuli/target_diamondsquares.svg	32	yes	0	0	2000
6.6.0	mac	2022-09-29	17:34:18	17:37:07	168487	1	1	1	main_slash	2	main_slash	60	resources/stimuli/distractor_diamondtriangles.svg	resources/stimuli/distractor_trianglediamonds.svg	37	no	0	1	2000
6.6.0	mac	2022-09-29	17:34:18	17:37:08	169365	1	1	1	main_slash	2	main_slash	61	resources/stimuli/distractor_trianglediamonds.svg	resources/stimuli/target_diamondsquares.svg	28	yes	53	1	259
6.6.0	mac	2022-09-29	17:34:18	17:37:09	170236	1	1	1	main_slash	2	main_slash	62	resources/stimuli/target_diamondsquares.svg	resources/stimuli/distractor_trianglediamonds.svg	20	yes	53	1	262
6.6.0	mac	2022-09-29	17:34:18	17:37:11	172909	1	1	1	main_slash	2	main_slash	63	resources/stimuli/distractor_trianglediamonds.svg	resources/stimuli/distractor_trianglediamonds.svg	34	no	0	1	2000
6.6.0	mac	2022-09-29	17:34:18	17:37:14	175527	1	1	1	main_slash	2	main_slash	64	resources/stimuli/distractor_trianglediamonds.svg	resources/stimuli/target_squarediamonds.svg	12	yes	0	0	2000
6.6.0	mac	2022-09-29	17:34:18	17:37:17	178146	1	1	1	main_slash	2	main_slash	65	resources/stimuli/target_trianglecircles.svg	resources/stimuli/distractor_trianglediamonds.svg	17	yes	0	0	2000
6.6.0	mac	2022-09-29	17:34:18	17:37:17	179031	1	1	1	main_slash	2	main_slash	66	resources/stimuli/distractor_trianglediamonds.svg	resources/stimuli/target_circletriangles.svg	9	yes	53	1	267
6.6.0	mac	2022-09-29	17:34:18	17:37:18	179916	1	1	1	main_slash	2	main_slash	67	resources/stimuli/target_squarediamonds.svg	resources/stimuli/distractor_trianglediamonds.svg	4	yes	53	1	267
6.6.0	mac	2022-09-29	17:34:18	17:37:19	180804	1	1	1	main_slash	2	main_slash	68	resources/stimuli/distractor_diamondtriangles.svg	resources/stimuli/target_trianglesquares.svg	30	yes	53	1	272
6.6.0	mac	2022-09-29	17:34:18	17:37:22	183416	1	1	1	main_slash	2	main_slash	69	resources/stimuli/target_trianglecircles.svg	resources/stimuli/distractor_diamondtriangles.svg	21	yes	0	0	2000
6.6.0	mac	2022-09-29	17:34:18	17:37:24	186036	1	1	1	main_slash	2	main_slash	70	resources/stimuli/distractor_trianglediamonds.svg	resources/stimuli/target_diamondcircles.svg	27	yes	0	0	2000
6.6.0	mac	2022-09-29	17:34:18	17:37:25	186917	1	1	1	main_slash	2	main_slash	71	resources/stimuli/target_trianglesquares.svg	resources/stimuli/distractor_diamondtriangles.svg	22	yes	53	1	263
6.6.0	mac	2022-09-29	17:34:18	17:37:26	187780	1	1	1	main_slash	2	main_slash	72	resources/stimuli/target_circlediamonds.svg	resources/stimuli/distractor_diamondtriangles.svg	6	yes	53	1	257
6.6.0	mac	2022-09-29	17:34:18	17:37:29	190390	1	1	1	main_slash	2	main_slash	73	resources/stimuli/target_trianglesquares.svg	resources/stimuli/distractor_trianglediamonds.svg	18	yes	0	0	2000
6.6.0	mac	2022-09-29	17:34:18	17:37:31	193009	1	1	1	main_slash	2	main_slash	74	resources/stimuli/target_diamondsquares.svg	resources/stimuli/distractor_diamondtriangles.svg	24	yes	0	0	2000
6.6.0	mac	2022-09-29	17:34:18	17:37:34	195628	1	1	1	main_slash	2	main_slash	75	resources/stimuli/distractor_diamondtriangles.svg	resources/stimuli/target_circletriangles.svg	13	yes	0	0	2000
6.6.0	mac	2022-09-29	17:34:18	17:37:35	196504	1	1	1	main_slash	2	main_slash	76	resources/stimuli/distractor_trianglediamonds.svg	resources/stimuli/distractor_trianglediamonds.svg	33	no	53	0	257
6.6.0	mac	2022-09-29	17:34:18	17:37:36	197372	1	1	1	main_slash	2	main_slash	77	resources/stimuli/distractor_diamondtriangles.svg	resources/stimuli/target_squarediamonds.svg	16	yes	53	1	259
6.6.0	mac	2022-09-29	17:34:18	17:37:37	198248	1	1	1	main_slash	2	main_slash	78	resources/stimuli/target_circletriangles.svg	resources/stimuli/distractor_diamondtriangles.svg	5	yes	53	1	267
6.6.0	mac	2022-09-29	17:34:18	17:37:39	200865	1	1	1	main_slash	2	main_slash	79	resources/stimuli/distractor_trianglediamonds.svg	resources/stimuli/target_circlediamonds.svg	10	yes	0	0	2000
6.6.0	mac	2022-09-29	17:34:18	17:37:40	201739	1	1	1	main_slash	2	main_slash	80	resources/stimuli/distractor_diamondtriangles.svg	resources/stimuli/target_squaretriangles.svg	15	yes	53	1	256
6.6.0	mac	2022-09-29	17:34:18	17:37:40	201739	1	1	1	interblock_break	3	interblock_break	1	resources/stimuli/distractor_diamondtriangles.svg	resources/stimuli/target_squaretriangles.svg	15	yes	0	0	20000
6.6.0	mac	2022-09-29	17:34:18	17:38:03	224055	1	1	1	practice_z	4	practice_z	1	resources/stimuli/distractor_diamondtriangles.svg	resources/stimuli/distractor_diamondtriangles.svg	13	no	44	0	270
6.6.0	mac	2022-09-29	17:34:18	17:38:06	227170	1	1	1	practice_z	4	practice_z	2	resources/stimuli/target_diamondsquares.svg	resources/stimuli/distractor_diamondtriangles.svg	3	yes	0	0	2000
6.6.0	mac	2022-09-29	17:34:18	17:38:07	228556	1	1	1	practice_z	4	practice_z	3	resources/stimuli/distractor_trianglediamonds.svg	resources/stimuli/distractor_trianglediamonds.svg	15	no	44	0	267
6.6.0	mac	2022-09-29	17:34:18	17:38:08	229940	1	1	1	practice_z	4	practice_z	4	resources/stimuli/distractor_trianglediamonds.svg	resources/stimuli/distractor_diamondtriangles.svg	16	no	44	0	267
6.6.0	mac	2022-09-29	17:34:18	17:38:12	233058	1	1	1	practice_z	4	practice_z	5	resources/stimuli/target_circlediamonds.svg	resources/stimuli/distractor_diamondtriangles.svg	1	yes	0	0	2000
6.6.0	mac	2022-09-29	17:34:18	17:38:13	234444	1	1	1	practice_z	4	practice_z	6	resources/stimuli/distractor_diamondtriangles.svg	resources/stimuli/target_diamondcircles.svg	8	yes	44	1	266
6.6.0	mac	2022-09-29	17:34:18	17:38:14	235829	1	1	1	practice_z	4	practice_z	7	resources/stimuli/distractor_diamondtriangles.svg	resources/stimuli/target_trianglecircles.svg	9	yes	44	1	267
6.6.0	mac	2022-09-29	17:34:18	17:38:17	238947	1	1	1	practice_z	4	practice_z	8	resources/stimuli/target_squarediamonds.svg	resources/stimuli/distractor_diamondtriangles.svg	2	yes	0	0	2000
6.6.0	mac	2022-09-29	17:34:18	17:38:19	240329	1	1	1	practice_z	4	practice_z	9	resources/stimuli/distractor_diamondtriangles.svg	resources/stimuli/target_circletriangles.svg	7	yes	44	1	263
6.6.0	mac	2022-09-29	17:34:18	17:38:20	241708	1	1	1	practice_z	4	practice_z	10	resources/stimuli/target_circlediamonds.svg	resources/stimuli/distractor_trianglediamonds.svg	4	yes	44	1	258
6.6.0	mac	2022-09-29	17:34:18	17:38:22	243080	1	1	1	practice_z	4	practice_z	11	resources/stimuli/distractor_diamondtriangles.svg	resources/stimuli/distractor_trianglediamonds.svg	14	no	44	0	262
6.6.0	mac	2022-09-29	17:34:18	17:38:23	244448	1	1	1	practice_z	4	practice_z	12	resources/stimuli/distractor_trianglediamonds.svg	resources/stimuli/target_squarediamonds.svg	11	yes	44	1	261
6.6.0	mac	2022-09-29	17:34:18	17:38:24	245818	1	1	1	practice_z	4	practice_z	13	resources/stimuli/distractor_trianglediamonds.svg	resources/stimuli/target_diamondcircles.svg	12	yes	44	1	265
6.6.0	mac	2022-09-29	17:34:18	17:38:27	248938	1	1	1	practice_z	4	practice_z	14	resources/stimuli/target_squarediamonds.svg	resources/stimuli/distractor_trianglediamonds.svg	5	yes	0	0	2000
6.6.0	mac	2022-09-29	17:34:18	17:38:29	250490	1	1	1	practice_z	4	practice_z	15	resources/stimuli/target_diamondsquares.svg	resources/stimuli/distractor_trianglediamonds.svg	6	yes	44	1	266
6.6.0	mac	2022-09-29	17:34:18	17:38:30	251875	1	1	1	practice_z	4	practice_z	16	resources/stimuli/distractor_trianglediamonds.svg	resources/stimuli/target_circlediamonds.svg	10	yes	44	1	267
6.6.0	mac	2022-09-29	17:34:18	17:38:34	255593	1	1	1	main_z	5	main_z	1	resources/stimuli/distractor_diamondtriangles.svg	resources/stimuli/target_trianglecircles.svg	29	yes	0	0	2000
6.6.0	mac	2022-09-29	17:34:18	17:38:37	258212	1	1	1	main_z	5	main_z	2	resources/stimuli/distractor_diamondtriangles.svg	resources/stimuli/target_diamondsquares.svg	32	yes	0	0	2000
6.6.0	mac	2022-09-29	17:34:18	17:38:39	260831	1	1	1	main_z	5	main_z	3	resources/stimuli/target_trianglecircles.svg	resources/stimuli/distractor_trianglediamonds.svg	17	yes	0	0	2000
6.6.0	mac	2022-09-29	17:34:18	17:38:40	261716	1	1	1	main_z	5	main_z	4	resources/stimuli/target_circlediamonds.svg	resources/stimuli/distractor_diamondtriangles.svg	6	yes	44	1	266
6.6.0	mac	2022-09-29	17:34:18	17:38:43	264333	1	1	1	main_z	5	main_z	5	resources/stimuli/distractor_trianglediamonds.svg	resources/stimuli/target_diamondcircles.svg	27	yes	0	0	2000
6.6.0	mac	2022-09-29	17:34:18	17:38:44	265219	1	1	1	main_z	5	main_z	6	resources/stimuli/distractor_trianglediamonds.svg	resources/stimuli/distractor_trianglediamonds.svg	34	no	44	0	266
6.6.0	mac	2022-09-29	17:34:18	17:38:45	266092	1	1	1	main_z	5	main_z	7	resources/stimuli/distractor_diamondtriangles.svg	resources/stimuli/target_circlediamonds.svg	14	yes	44	1	255
6.6.0	mac	2022-09-29	17:34:18	17:38:47	268704	1	1	1	main_z	5	main_z	8	resources/stimuli/target_squarediamonds.svg	resources/stimuli/distractor_diamondtriangles.svg	8	yes	0	0	2000
6.6.0	mac	2022-09-29	17:34:18	17:38:50	271323	1	1	1	main_z	5	main_z	9	resources/stimuli/target_squaretriangles.svg	resources/stimuli/distractor_trianglediamonds.svg	3	yes	0	0	2000
6.6.0	mac	2022-09-29	17:34:18	17:38:51	272209	1	1	1	main_z	5	main_z	10	resources/stimuli/distractor_diamondtriangles.svg	resources/stimuli/distractor_diamondtriangles.svg	40	no	44	0	267
6.6.0	mac	2022-09-29	17:34:18	17:38:52	273090	1	1	1	main_z	5	main_z	11	resources/stimuli/target_trianglecircles.svg	resources/stimuli/distractor_diamondtriangles.svg	21	yes	44	1	264
6.6.0	mac	2022-09-29	17:34:18	17:38:54	275710	1	1	1	main_z	5	main_z	12	resources/stimuli/distractor_diamondtriangles.svg	resources/stimuli/target_diamondcircles.svg	31	yes	0	0	2000
6.6.0	mac	2022-09-29	17:34:18	17:38:55	276590	1	1	1	main_z	5	main_z	13	resources/stimuli/distractor_diamondtriangles.svg	resources/stimuli/distractor_diamondtriangles.svg	39	no	44	0	261
6.6.0	mac	2022-09-29	17:34:18	17:38:56	277462	1	1	1	main_z	5	main_z	14	resources/stimuli/distractor_diamondtriangles.svg	resources/stimuli/distractor_trianglediamonds.svg	37	no	44	0	266
6.6.0	mac	2022-09-29	17:34:18	17:38:59	280080	1	1	1	main_z	5	main_z	15	resources/stimuli/target_diamondcircles.svg	resources/stimuli/distractor_trianglediamonds.svg	19	yes	0	0	2000
6.6.0	mac	2022-09-29	17:34:18	17:38:59	280966	1	1	1	main_z	5	main_z	16	resources/stimuli/distractor_diamondtriangles.svg	resources/stimuli/target_squarediamonds.svg	16	yes	44	1	267
6.6.0	mac	2022-09-29	17:34:18	17:39:02	283583	1	1	1	main_z	5	main_z	17	resources/stimuli/distractor_trianglediamonds.svg	resources/stimuli/target_circletriangles.svg	9	yes	0	0	2000
6.6.0	mac	2022-09-29	17:34:18	17:39:03	284472	1	1	1	main_z	5	main_z	18	resources/stimuli/distractor_trianglediamonds.svg	resources/stimuli/target_squarediamonds.svg	12	yes	44	1	270
6.6.0	mac	2022-09-29	17:34:18	17:39:04	285349	1	1	1	main_z	5	main_z	19	resources/stimuli/distractor_trianglediamonds.svg	resources/stimuli/target_diamondsquares.svg	28	yes	44	1	262
6.6.0	mac	2022-09-29	17:34:18	17:39:06	287953	1	1	1	main_z	5	main_z	20	resources/stimuli/distractor_trianglediamonds.svg	resources/stimuli/target_trianglecircles.svg	25	yes	0	0	2000
6.6.0	mac	2022-09-29	17:34:18	17:39:09	290589	1	1	1	main_z	5	main_z	21	resources/stimuli/distractor_trianglediamonds.svg	resources/stimuli/target_circlediamonds.svg	10	yes	0	0	2000
6.6.0	mac	2022-09-29	17:34:18	17:39:12	293207	1	1	1	main_z	5	main_z	22	resources/stimuli/target_diamondsquares.svg	resources/stimuli/distractor_diamondtriangles.svg	24	yes	0	0	2000
6.6.0	mac	2022-09-29	17:34:18	17:39:14	295826	1	1	1	main_z	5	main_z	23	resources/stimuli/target_circletriangles.svg	resources/stimuli/distractor_trianglediamonds.svg	1	yes	0	0	2000
6.6.0	mac	2022-09-29	17:34:18	17:39:17	298446	1	1	1	main_z	5	main_z	24	resources/stimuli/target_squaretriangles.svg	resources/stimuli/distractor_diamondtriangles.svg	7	yes	0	0	2000
6.6.0	mac	2022-09-29	17:34:18	17:39:20	301064	1	1	1	main_z	5	main_z	25	resources/stimuli/distractor_diamondtriangles.svg	resources/stimuli/target_trianglesquares.svg	30	yes	0	0	2000
6.6.0	mac	2022-09-29	17:34:18	17:39:20	301967	1	1	1	main_z	5	main_z	26	resources/stimuli/target_diamondsquares.svg	resources/stimuli/distractor_trianglediamonds.svg	20	yes	44	1	283
6.6.0	mac	2022-09-29	17:34:18	17:39:23	304585	1	1	1	main_z	5	main_z	27	resources/stimuli/target_circlediamonds.svg	resources/stimuli/distractor_trianglediamonds.svg	2	yes	0	0	2000
6.6.0	mac	2022-09-29	17:34:18	17:39:26	307202	1	1	1	main_z	5	main_z	28	resources/stimuli/distractor_trianglediamonds.svg	resources/stimuli/distractor_diamondtriangles.svg	35	no	0	1	2000
6.6.0	mac	2022-09-29	17:34:18	17:39:28	309823	1	1	1	main_z	5	main_z	29	resources/stimuli/target_trianglesquares.svg	resources/stimuli/distractor_trianglediamonds.svg	18	yes	0	0	2000
6.6.0	mac	2022-09-29	17:34:18	17:39:29	310728	1	1	1	main_z	5	main_z	30	resources/stimuli/distractor_trianglediamonds.svg	resources/stimuli/distractor_diamondtriangles.svg	36	no	44	0	288
6.6.0	mac	2022-09-29	17:34:18	17:39:30	311610	1	1	1	main_z	5	main_z	31	resources/stimuli/distractor_trianglediamonds.svg	resources/stimuli/distractor_trianglediamonds.svg	33	no	44	0	267
6.6.0	mac	2022-09-29	17:34:18	17:39:31	312675	1	1	1	main_z	5	main_z	32	resources/stimuli/distractor_trianglediamonds.svg	resources/stimuli/target_squaretriangles.svg	11	yes	44	1	283
6.6.0	mac	2022-09-29	17:34:18	17:39:34	315294	1	1	1	main_z	5	main_z	33	resources/stimuli/target_diamondcircles.svg	resources/stimuli/distractor_diamondtriangles.svg	23	yes	0	0	2000
6.6.0	mac	2022-09-29	17:34:18	17:39:36	317911	1	1	1	main_z	5	main_z	34	resources/stimuli/distractor_diamondtriangles.svg	resources/stimuli/distractor_trianglediamonds.svg	38	no	0	1	2000
6.6.0	mac	2022-09-29	17:34:18	17:39:39	320531	1	1	1	main_z	5	main_z	35	resources/stimuli/distractor_diamondtriangles.svg	resources/stimuli/target_circletriangles.svg	13	yes	0	0	2000
6.6.0	mac	2022-09-29	17:34:18	17:39:42	323150	1	1	1	main_z	5	main_z	36	resources/stimuli/target_trianglesquares.svg	resources/stimuli/distractor_diamondtriangles.svg	22	yes	0	0	2000
6.6.0	mac	2022-09-29	17:34:18	17:39:42	324036	1	1	1	main_z	5	main_z	37	resources/stimuli/target_squarediamonds.svg	resources/stimuli/distractor_trianglediamonds.svg	4	yes	44	1	266
6.6.0	mac	2022-09-29	17:34:18	17:39:45	326653	1	1	1	main_z	5	main_z	38	resources/stimuli/distractor_trianglediamonds.svg	resources/stimuli/target_trianglesquares.svg	26	yes	0	0	2000
6.6.0	mac	2022-09-29	17:34:18	17:39:48	329270	1	1	1	main_z	5	main_z	39	resources/stimuli/distractor_diamondtriangles.svg	resources/stimuli/target_squaretriangles.svg	15	yes	0	0	2000
6.6.0	mac	2022-09-29	17:34:18	17:39:49	330176	1	1	1	main_z	5	main_z	40	resources/stimuli/target_circletriangles.svg	resources/stimuli/distractor_diamondtriangles.svg	5	yes	44	1	286
6.6.0	mac	2022-09-29	17:34:18	17:39:51	332792	1	1	1	main_z	5	main_z	41	resources/stimuli/distractor_diamondtriangles.svg	resources/stimuli/distractor_trianglediamonds.svg	38	no	0	1	2000
6.6.0	mac	2022-09-29	17:34:18	17:39:52	333693	1	1	1	main_z	5	main_z	42	resources/stimuli/target_circletriangles.svg	resources/stimuli/distractor_diamondtriangles.svg	5	yes	44	1	283
6.6.0	mac	2022-09-29	17:34:18	17:39:53	334592	1	1	1	main_z	5	main_z	43	resources/stimuli/target_circlediamonds.svg	resources/stimuli/distractor_diamondtriangles.svg	6	yes	44	1	282
6.6.0	mac	2022-09-29	17:34:18	17:39:54	335491	1	1	1	main_z	5	main_z	44	resources/stimuli/distractor_trianglediamonds.svg	resources/stimuli/target_squaretriangles.svg	11	yes	44	1	280
6.6.0	mac	2022-09-29	17:34:18	17:39:57	338113	1	1	1	main_z	5	main_z	45	resources/stimuli/target_diamondsquares.svg	resources/stimuli/distractor_trianglediamonds.svg	20	yes	0	0	2000
6.6.0	mac	2022-09-29	17:34:18	17:39:59	340731	1	1	1	main_z	5	main_z	46	resources/stimuli/target_squaretriangles.svg	resources/stimuli/distractor_trianglediamonds.svg	3	yes	0	0	2000
6.6.0	mac	2022-09-29	17:34:18	17:40:00	341622	1	1	1	main_z	5	main_z	47	resources/stimuli/target_diamondsquares.svg	resources/stimuli/distractor_diamondtriangles.svg	24	yes	44	1	274
6.6.0	mac	2022-09-29	17:34:18	17:40:01	342663	1	1	1	main_z	5	main_z	48	resources/stimuli/distractor_diamondtriangles.svg	resources/stimuli/target_circlediamonds.svg	14	yes	44	1	280
6.6.0	mac	2022-09-29	17:34:18	17:40:02	343550	1	1	1	main_z	5	main_z	49	resources/stimuli/target_trianglesquares.svg	resources/stimuli/distractor_diamondtriangles.svg	22	yes	44	1	281
6.6.0	mac	2022-09-29	17:34:18	17:40:05	346169	1	1	1	main_z	5	main_z	50	resources/stimuli/target_diamondcircles.svg	resources/stimuli/distractor_diamondtriangles.svg	23	yes	0	0	2000
6.6.0	mac	2022-09-29	17:34:18	17:40:06	347070	1	1	1	main_z	5	main_z	51	resources/stimuli/distractor_trianglediamonds.svg	resources/stimuli/target_trianglesquares.svg	26	yes	44	1	284
6.6.0	mac	2022-09-29	17:34:18	17:40:08	349689	1	1	1	main_z	5	main_z	52	resources/stimuli/target_squarediamonds.svg	resources/stimuli/distractor_diamondtriangles.svg	8	yes	0	0	2000
6.6.0	mac	2022-09-29	17:34:18	17:40:09	350581	1	1	1	main_z	5	main_z	53	resources/stimuli/target_circlediamonds.svg	resources/stimuli/distractor_trianglediamonds.svg	2	yes	44	1	275
6.6.0	mac	2022-09-29	17:34:18	17:40:10	351475	1	1	1	main_z	5	main_z	54	resources/stimuli/target_squaretriangles.svg	resources/stimuli/distractor_diamondtriangles.svg	7	yes	44	1	284
6.6.0	mac	2022-09-29	17:34:18	17:40:13	354093	1	1	1	main_z	5	main_z	55	resources/stimuli/distractor_diamondtriangles.svg	resources/stimuli/target_squaretriangles.svg	15	yes	0	0	2000
6.6.0	mac	2022-09-29	17:34:18	17:40:15	356711	1	1	1	main_z	5	main_z	56	resources/stimuli/distractor_diamondtriangles.svg	resources/stimuli/target_trianglecircles.svg	29	yes	0	0	2000
6.6.0	mac	2022-09-29	17:34:18	17:40:18	359330	1	1	1	main_z	5	main_z	57	resources/stimuli/distractor_trianglediamonds.svg	resources/stimuli/distractor_diamondtriangles.svg	36	no	0	1	2000
6.6.0	mac	2022-09-29	17:34:18	17:40:19	360475	1	1	1	main_z	5	main_z	58	resources/stimuli/distractor_trianglediamonds.svg	resources/stimuli/distractor_trianglediamonds.svg	34	no	44	0	292
6.6.0	mac	2022-09-29	17:34:18	17:40:20	361366	1	1	1	main_z	5	main_z	59	resources/stimuli/target_circletriangles.svg	resources/stimuli/distractor_trianglediamonds.svg	1	yes	44	1	285
6.6.0	mac	2022-09-29	17:34:18	17:40:21	362264	1	1	1	main_z	5	main_z	60	resources/stimuli/target_diamondcircles.svg	resources/stimuli/distractor_trianglediamonds.svg	19	yes	44	1	280
6.6.0	mac	2022-09-29	17:34:18	17:40:23	364885	1	1	1	main_z	5	main_z	61	resources/stimuli/distractor_diamondtriangles.svg	resources/stimuli/distractor_diamondtriangles.svg	40	no	0	1	2000
6.6.0	mac	2022-09-29	17:34:18	17:40:26	367504	1	1	1	main_z	5	main_z	62	resources/stimuli/distractor_trianglediamonds.svg	resources/stimuli/distractor_diamondtriangles.svg	35	no	0	1	2000
6.6.0	mac	2022-09-29	17:34:18	17:40:29	370122	1	1	1	main_z	5	main_z	63	resources/stimuli/target_trianglecircles.svg	resources/stimuli/distractor_trianglediamonds.svg	17	yes	0	0	2000
6.6.0	mac	2022-09-29	17:34:18	17:40:31	372741	1	1	1	main_z	5	main_z	64	resources/stimuli/target_squarediamonds.svg	resources/stimuli/distractor_trianglediamonds.svg	4	yes	0	0	2000
6.6.0	mac	2022-09-29	17:34:18	17:40:34	375360	1	1	1	main_z	5	main_z	65	resources/stimuli/target_trianglesquares.svg	resources/stimuli/distractor_trianglediamonds.svg	18	yes	0	0	2000
6.6.0	mac	2022-09-29	17:34:18	17:40:36	377979	1	1	1	main_z	5	main_z	66	resources/stimuli/distractor_trianglediamonds.svg	resources/stimuli/target_circletriangles.svg	9	yes	0	0	2000
6.6.0	mac	2022-09-29	17:34:18	17:40:39	380598	1	1	1	main_z	5	main_z	67	resources/stimuli/distractor_trianglediamonds.svg	resources/stimuli/target_diamondcircles.svg	27	yes	0	0	2000
6.6.0	mac	2022-09-29	17:34:18	17:40:42	383216	1	1	1	main_z	5	main_z	68	resources/stimuli/distractor_diamondtriangles.svg	resources/stimuli/target_squarediamonds.svg	16	yes	0	0	2000
6.6.0	mac	2022-09-29	17:34:18	17:40:43	384129	1	1	1	main_z	5	main_z	69	resources/stimuli/distractor_trianglediamonds.svg	resources/stimuli/target_squarediamonds.svg	12	yes	44	1	293
6.6.0	mac	2022-09-29	17:34:18	17:40:43	385007	1	1	1	main_z	5	main_z	70	resources/stimuli/distractor_diamondtriangles.svg	resources/stimuli/target_circletriangles.svg	13	yes	44	1	273
6.6.0	mac	2022-09-29	17:34:18	17:40:46	387619	1	1	1	main_z	5	main_z	71	resources/stimuli/target_trianglecircles.svg	resources/stimuli/distractor_diamondtriangles.svg	21	yes	0	0	2000
6.6.0	mac	2022-09-29	17:34:18	17:40:49	390239	1	1	1	main_z	5	main_z	72	resources/stimuli/distractor_trianglediamonds.svg	resources/stimuli/distractor_trianglediamonds.svg	33	no	0	1	2000
6.6.0	mac	2022-09-29	17:34:18	17:40:50	391132	1	1	1	main_z	5	main_z	73	resources/stimuli/distractor_diamondtriangles.svg	resources/stimuli/distractor_diamondtriangles.svg	39	no	44	0	274
6.6.0	mac	2022-09-29	17:34:18	17:40:50	392022	1	1	1	main_z	5	main_z	74	resources/stimuli/distractor_diamondtriangles.svg	resources/stimuli/target_trianglesquares.svg	30	yes	44	1	282
6.6.0	mac	2022-09-29	17:34:18	17:40:51	392923	1	1	1	main_z	5	main_z	75	resources/stimuli/distractor_trianglediamonds.svg	resources/stimuli/target_circlediamonds.svg	10	yes	44	1	280
6.6.0	mac	2022-09-29	17:34:18	17:40:54	395543	1	1	1	main_z	5	main_z	76	resources/stimuli/distractor_diamondtriangles.svg	resources/stimuli/distractor_trianglediamonds.svg	37	no	0	1	2000
6.6.0	mac	2022-09-29	17:34:18	17:40:57	398162	1	1	1	main_z	5	main_z	77	resources/stimuli/distractor_trianglediamonds.svg	resources/stimuli/target_trianglecircles.svg	25	yes	0	0	2000
6.6.0	mac	2022-09-29	17:34:18	17:40:59	400781	1	1	1	main_z	5	main_z	78	resources/stimuli/distractor_trianglediamonds.svg	resources/stimuli/target_diamondsquares.svg	28	yes	0	0	2000
6.6.0	mac	2022-09-29	17:34:18	17:41:02	403400	1	1	1	main_z	5	main_z	79	resources/stimuli/distractor_diamondtriangles.svg	resources/stimuli/target_diamondsquares.svg	32	yes	0	0	2000
6.6.0	mac	2022-09-29	17:34:18	17:41:04	406019	1	1	1	main_z	5	main_z	80	resources/stimuli/distractor_diamondtriangles.svg	resources/stimuli/target_diamondcircles.svg	31	yes	0	0	2000
