subject	time_elapsed_ms	blocknum	block_type	block_response	trialnum	target	level	field	target_present	response	correct	rt
426897814	142587	1	practice	z	1	square	global	RVF	yes	absent	0	2003
426897814	150440	1	practice	z	2	circle	global	RVF	yes	present	1	307
426897814	153048	1	practice	z	3	absent	absent	absent	no	present	0	340
426897814	155686	1	practice	z	4	circle	local	RVF	yes	present	1	387
426897814	158033	1	practice	z	5	absent	absent	absent	no	present	0	331
426897814	163978	1	practice	z	6	square	global	LVF	yes	present	1	324
426897814	167237	1	practice	z	7	absent	absent	absent	no	present	0	229
426897814	169750	1	practice	z	8	absent	absent	absent	no	present	0	313
426897814	174686	1	practice	z	9	square	local	LVF	yes	present	1	303
426897814	178258	1	practice	z	10	square	global	LVF	yes	present	1	306
426897814	180791	1	practice	z	11	circle	global	LVF	yes	present	1	296
426897814	184858	1	practice	z	12	circle	local	RVF	yes	absent	0	2003
426897814	189400	1	practice	z	13	circle	global	RVF	yes	present	1	322
426897814	192207	1	practice	z	14	circle	local	RVF	yes	present	1	331
426897814	194731	1	practice	z	15	circle	global	LVF	yes	present	1	368
426897814	197187	1	practice	z	16	square	local	LVF	yes	present	1	387
426897814	238466	2	main	z	1	circle	local	RVF	yes	present	1	231
426897814	246399	2	main	z	2	circle	global	LVF	yes	present	1	205
426897814	250514	2	main	z	3	square	global	RVF	yes	present	1	258
426897814	252778	2	main	z	4	square	local	RVF	yes	present	1	327
426897814	255227	2	main	z	5	square	global	LVF	yes	present	1	303
426897814	261621	2	main	z	6	circle	global	RVF	yes	absent	0	2003
426897814	266014	2	main	z	7	square	local	LVF	yes	present	1	292
426897814	269006	2	main	z	8	square	local	RVF	yes	present	1	311
426897814	271797	2	main	z	9	circle	local	LVF	yes	present	1	318
426897814	275820	2	main	z	10	square	local	LVF	yes	present	1	299
426897814	278417	2	main	z	11	circle	global	LVF	yes	present	1	271
426897814	281878	2	main	z	12	square	local	RVF	yes	present	1	295
426897814	285077	2	main	z	13	circle	local	LVF	yes	present	1	292
426897814	290352	2	main	z	14	square	local	RVF	yes	present	1	398
426897814	294188	2	main	z	15	square	global	LVF	yes	present	1	306
426897814	298420	2	main	z	16	absent	absent	absent	no	absent	1	2003
426897814	300841	2	main	z	17	square	global	LVF	yes	present	1	285
426897814	302704	2	main	z	18	circle	global	RVF	yes	present	1	322
426897814	304439	2	main	z	19	circle	local	LVF	yes	present	1	252
426897814	306035	2	main	z	20	absent	absent	absent	no	present	0	333
426897814	308823	2	main	z	21	circle	global	LVF	yes	present	1	330
426897814	313059	2	main	z	22	absent	absent	absent	no	absent	1	2003
426897814	316406	2	main	z	23	absent	absent	absent	no	absent	1	2003
426897814	318473	2	main	z	24	square	global	RVF	yes	present	1	340
426897814	320603	2	main	z	25	circle	global	RVF	yes	present	1	358
426897814	322476	2	main	z	26	circle	local	RVF	yes	present	1	385
426897814	324112	2	main	z	27	square	global	RVF	yes	present	1	320
426897814	325974	2	main	z	28	circle	local	RVF	yes	present	1	328
426897814	327757	2	main	z	29	circle	local	RVF	yes	present	1	340
426897814	331101	2	main	z	30	square	local	LVF	yes	absent	0	2003
426897814	332412	2	main	z	31	circle	global	LVF	yes	present	1	286
426897814	333941	2	main	z	32	square	global	LVF	yes	present	1	246
426897814	335640	2	main	z	33	circle	global	RVF	yes	present	1	361
426897814	337257	2	main	z	34	square	local	LVF	yes	present	1	318
426897814	338903	2	main	z	35	circle	local	LVF	yes	present	1	256
426897814	342171	2	main	z	36	absent	absent	absent	no	absent	1	2003
426897814	345524	2	main	z	37	absent	absent	absent	no	present	0	315
426897814	348184	2	main	z	38	square	global	RVF	yes	present	1	350
426897814	352171	2	main	z	39	absent	absent	absent	no	absent	1	2003
426897814	355657	2	main	z	40	absent	absent	absent	no	absent	1	2003
426897814	357043	2	main	z	41	circle	local	RVF	yes	present	1	348
426897814	358712	2	main	z	42	square	local	LVF	yes	present	1	482
426897814	362351	2	main	z	43	absent	absent	absent	no	absent	1	2003
426897814	365407	2	main	z	44	absent	absent	absent	no	absent	1	2003
426897814	367062	2	main	z	45	square	local	LVF	yes	present	1	528
426897814	371359	2	main	z	46	absent	absent	absent	no	absent	1	2003
426897814	372847	2	main	z	47	circle	global	RVF	yes	present	1	297
426897814	374483	2	main	z	48	circle	local	LVF	yes	present	1	336
426897814	375951	2	main	z	49	square	global	LVF	yes	present	1	318
426897814	377553	2	main	z	50	absent	absent	absent	no	present	0	343
426897814	383721	2	main	z	51	circle	local	LVF	yes	present	1	338
426897814	385502	2	main	z	52	square	global	LVF	yes	present	1	326
426897814	387276	2	main	z	53	circle	local	RVF	yes	present	1	434
426897814	389513	2	main	z	54	absent	absent	absent	no	present	0	234
426897814	391630	2	main	z	55	square	local	RVF	yes	present	1	420
426897814	395366	2	main	z	56	circle	global	RVF	yes	absent	0	2003
426897814	398419	2	main	z	57	circle	local	LVF	yes	present	1	355
426897814	401547	2	main	z	58	absent	absent	absent	no	absent	1	2003
426897814	411123	2	main	z	59	circle	local	RVF	yes	present	1	343
426897814	412778	2	main	z	60	circle	global	LVF	yes	present	1	325
426897814	414308	2	main	z	61	square	global	LVF	yes	present	1	319
426897814	417484	2	main	z	62	absent	absent	absent	no	absent	1	2003
426897814	418795	2	main	z	63	square	local	RVF	yes	present	1	349
426897814	420333	2	main	z	64	square	local	RVF	yes	present	1	345
426897814	422143	2	main	z	65	square	global	RVF	yes	present	1	585
426897814	424157	2	main	z	66	square	global	LVF	yes	present	1	280
426897814	425475	2	main	z	67	circle	global	LVF	yes	present	1	237
426897814	426973	2	main	z	68	square	local	RVF	yes	present	1	381
426897814	428461	2	main	z	69	circle	global	LVF	yes	present	1	257
426897814	435353	2	main	z	70	square	global	RVF	yes	absent	0	2003
426897814	436553	2	main	z	71	circle	global	LVF	yes	present	1	322
426897814	437944	2	main	z	72	square	local	LVF	yes	present	1	357
426897814	439419	2	main	z	73	square	local	LVF	yes	present	1	306
426897814	440734	2	main	z	74	circle	local	LVF	yes	present	1	315
426897814	442102	2	main	z	75	circle	global	RVF	yes	present	1	315
426897814	444419	2	main	z	76	square	global	RVF	yes	present	1	311
426897814	446211	2	main	z	77	square	global	RVF	yes	present	1	284
426897814	450155	2	main	z	78	circle	local	RVF	yes	present	1	360
426897814	451691	2	main	z	79	circle	global	RVF	yes	present	1	300
426897814	455166	2	main	z	80	absent	absent	absent	no	absent	1	2003
426897814	470406	3	practice	slash	1	square	global	LVF	yes	present	1	497
426897814	473878	3	practice	slash	2	square	global	RVF	yes	present	1	302
426897814	476480	3	practice	slash	3	circle	local	RVF	yes	present	1	356
426897814	480510	3	practice	slash	4	absent	absent	absent	no	absent	1	2003
426897814	483117	3	practice	slash	5	square	global	LVF	yes	present	1	362
426897814	485955	3	practice	slash	6	square	local	LVF	yes	present	1	414
426897814	488321	3	practice	slash	7	circle	local	RVF	yes	present	1	302
426897814	490788	3	practice	slash	8	square	local	LVF	yes	present	1	289
426897814	493309	3	practice	slash	9	circle	global	RVF	yes	present	1	401
426897814	495689	3	practice	slash	10	absent	absent	absent	no	present	0	309
426897814	497946	3	practice	slash	11	circle	local	RVF	yes	present	1	316
426897814	500233	3	practice	slash	12	absent	absent	absent	no	present	0	331
426897814	502461	3	practice	slash	13	circle	global	LVF	yes	present	1	331
426897814	506412	3	practice	slash	14	absent	absent	absent	no	absent	1	2003
426897814	508673	3	practice	slash	15	circle	global	RVF	yes	present	1	320
426897814	510886	3	practice	slash	16	circle	global	LVF	yes	present	1	345
426897814	532528	4	main	slash	1	absent	absent	absent	no	present	0	302
426897814	537341	4	main	slash	2	absent	absent	absent	no	absent	1	2003
426897814	538881	4	main	slash	3	square	global	RVF	yes	present	1	403
426897814	540366	4	main	slash	4	square	global	LVF	yes	present	1	278
426897814	541881	4	main	slash	5	circle	local	RVF	yes	present	1	196
426897814	543363	4	main	slash	6	circle	local	RVF	yes	present	1	275
426897814	544894	4	main	slash	7	circle	global	LVF	yes	present	1	306
426897814	546242	4	main	slash	8	circle	local	LVF	yes	present	1	307
426897814	547717	4	main	slash	9	circle	global	RVF	yes	present	1	288
426897814	549355	4	main	slash	10	square	local	RVF	yes	present	1	281
426897814	551192	4	main	slash	11	square	local	LVF	yes	present	1	223
426897814	553172	4	main	slash	12	circle	global	RVF	yes	present	1	474
426897814	555189	4	main	slash	13	absent	absent	absent	no	present	0	274
426897814	557318	4	main	slash	14	square	global	RVF	yes	present	1	244
426897814	559237	4	main	slash	15	absent	absent	absent	no	present	0	233
426897814	567781	4	main	slash	16	square	local	RVF	yes	present	1	206
426897814	569399	4	main	slash	17	circle	global	LVF	yes	present	1	297
426897814	571308	4	main	slash	18	square	global	RVF	yes	present	1	276
426897814	572942	4	main	slash	19	square	global	LVF	yes	present	1	313
426897814	574732	4	main	slash	20	square	global	RVF	yes	present	1	310
426897814	578348	4	main	slash	21	square	local	LVF	yes	absent	0	2003
426897814	580117	4	main	slash	22	square	local	RVF	yes	present	1	342
426897814	583619	4	main	slash	23	absent	absent	absent	no	absent	1	2003
426897814	586487	4	main	slash	24	absent	absent	absent	no	absent	1	2003
426897814	587680	4	main	slash	25	circle	local	LVF	yes	present	1	293
426897814	589054	4	main	slash	26	circle	local	RVF	yes	present	1	216
426897814	590523	4	main	slash	27	circle	global	LVF	yes	present	1	303
426897814	592121	4	main	slash	28	square	local	LVF	yes	present	1	352
426897814	593637	4	main	slash	29	square	local	RVF	yes	present	1	249
426897814	595218	4	main	slash	30	absent	absent	absent	no	present	0	359
426897814	597311	4	main	slash	31	circle	global	RVF	yes	present	1	243
426897814	599502	4	main	slash	32	circle	global	LVF	yes	present	1	254
426897814	601964	4	main	slash	33	circle	global	RVF	yes	present	1	257
426897814	603894	4	main	slash	34	circle	local	LVF	yes	present	1	334
426897814	605704	4	main	slash	35	square	local	LVF	yes	present	1	206
426897814	607995	4	main	slash	36	circle	local	LVF	yes	present	1	344
426897814	609913	4	main	slash	37	square	global	LVF	yes	present	1	241
426897814	611563	4	main	slash	38	circle	local	RVF	yes	present	1	329
426897814	613419	4	main	slash	39	square	global	LVF	yes	present	1	226
426897814	615550	4	main	slash	40	absent	absent	absent	no	present	0	204
426897814	619508	4	main	slash	41	absent	absent	absent	no	present	0	224
426897814	622301	4	main	slash	42	circle	global	RVF	yes	present	1	338
426897814	625696	4	main	slash	43	absent	absent	absent	no	absent	1	2003
426897814	627256	4	main	slash	44	square	local	RVF	yes	present	1	326
426897814	629541	4	main	slash	45	circle	local	RVF	yes	present	1	326
426897814	631893	4	main	slash	46	circle	global	LVF	yes	present	1	331
426897814	633497	4	main	slash	47	square	local	RVF	yes	present	1	276
426897814	635402	4	main	slash	48	absent	absent	absent	no	present	0	215
426897814	637798	4	main	slash	49	circle	global	LVF	yes	present	1	265
426897814	640088	4	main	slash	50	circle	local	RVF	yes	present	1	291
426897814	641972	4	main	slash	51	circle	local	RVF	yes	present	1	293
426897814	644110	4	main	slash	52	square	local	LVF	yes	present	1	306
426897814	645714	4	main	slash	53	absent	absent	absent	no	present	0	215
426897814	649036	4	main	slash	54	absent	absent	absent	no	present	0	225
426897814	651312	4	main	slash	55	circle	local	LVF	yes	present	1	333
426897814	653128	4	main	slash	56	square	global	LVF	yes	present	1	372
426897814	655003	4	main	slash	57	circle	global	RVF	yes	present	1	579
426897814	657117	4	main	slash	58	square	global	LVF	yes	present	1	347
426897814	659506	4	main	slash	59	square	local	RVF	yes	present	1	312
426897814	661256	4	main	slash	60	circle	global	RVF	yes	present	1	340
426897814	662673	4	main	slash	61	circle	local	LVF	yes	present	1	334
426897814	664261	4	main	slash	62	absent	absent	absent	no	present	0	214
426897814	665854	4	main	slash	63	circle	local	LVF	yes	present	1	286
426897814	667557	4	main	slash	64	square	global	LVF	yes	present	1	371
426897814	669219	4	main	slash	65	circle	global	RVF	yes	present	1	344
426897814	670917	4	main	slash	66	square	local	LVF	yes	present	1	466
426897814	672752	4	main	slash	67	square	global	RVF	yes	present	1	274
426897814	676025	4	main	slash	68	square	local	RVF	yes	present	1	311
426897814	677364	4	main	slash	69	square	global	RVF	yes	present	1	309
426897814	678777	4	main	slash	70	square	local	LVF	yes	present	1	333
426897814	680406	4	main	slash	71	circle	global	LVF	yes	present	1	330
426897814	681728	4	main	slash	72	square	local	LVF	yes	present	1	305
426897814	683127	4	main	slash	73	square	global	RVF	yes	present	1	260
426897814	684596	4	main	slash	74	square	global	LVF	yes	present	1	311
426897814	687898	4	main	slash	75	absent	absent	absent	no	absent	1	2003
426897814	689875	4	main	slash	76	circle	local	RVF	yes	present	1	306
426897814	691403	4	main	slash	77	square	global	RVF	yes	present	1	258
426897814	693064	4	main	slash	78	absent	absent	absent	no	present	0	357
426897814	695051	4	main	slash	79	circle	local	LVF	yes	present	1	329
426897814	696677	4	main	slash	80	circle	global	LVF	yes	present	1	337
