subject	time_elapsed_ms	blocknum	block	trialnum	target_present	response	response_log	correct	rt	block_type
426897814	142587	1	practice_z	1	yes	absent	0	0	2003	practice
426897814	150440	1	practice_z	2	yes	present	1	1	307	practice
426897814	153048	1	practice_z	3	no	present	1	0	340	practice
426897814	155686	1	practice_z	4	yes	present	1	1	387	practice
426897814	158033	1	practice_z	5	no	present	1	0	331	practice
426897814	163978	1	practice_z	6	yes	present	1	1	324	practice
426897814	167237	1	practice_z	7	no	present	1	0	229	practice
426897814	169750	1	practice_z	8	no	present	1	0	313	practice
426897814	174686	1	practice_z	9	yes	present	1	1	303	practice
426897814	178258	1	practice_z	10	yes	present	1	1	306	practice
426897814	180791	1	practice_z	11	yes	present	1	1	296	practice
426897814	184858	1	practice_z	12	yes	absent	0	0	2003	practice
426897814	189400	1	practice_z	13	yes	present	1	1	322	practice
426897814	192207	1	practice_z	14	yes	present	1	1	331	practice
426897814	194731	1	practice_z	15	yes	present	1	1	368	practice
426897814	197187	1	practice_z	16	yes	present	1	1	387	practice
426897814	238466	2	main_z	1	yes	present	1	1	231	main
426897814	246399	2	main_z	2	yes	present	1	1	205	main
426897814	250514	2	main_z	3	yes	present	1	1	258	main
426897814	252778	2	main_z	4	yes	present	1	1	327	main
426897814	255227	2	main_z	5	yes	present	1	1	303	main
426897814	261621	2	main_z	6	yes	absent	0	0	2003	main
426897814	266014	2	main_z	7	yes	present	1	1	292	main
426897814	269006	2	main_z	8	yes	present	1	1	311	main
426897814	271797	2	main_z	9	yes	present	1	1	318	main
426897814	275820	2	main_z	10	yes	present	1	1	299	main
426897814	278417	2	main_z	11	yes	present	1	1	271	main
426897814	281878	2	main_z	12	yes	present	1	1	295	main
426897814	285077	2	main_z	13	yes	present	1	1	292	main
426897814	290352	2	main_z	14	yes	present	1	1	398	main
426897814	294188	2	main_z	15	yes	present	1	1	306	main
426897814	298420	2	main_z	16	no	absent	0	1	2003	main
426897814	300841	2	main_z	17	yes	present	1	1	285	main
426897814	302704	2	main_z	18	yes	present	1	1	322	main
426897814	304439	2	main_z	19	yes	present	1	1	252	main
426897814	306035	2	main_z	20	no	present	1	0	333	main
426897814	308823	2	main_z	21	yes	present	1	1	330	main
426897814	313059	2	main_z	22	no	absent	0	1	2003	main
426897814	316406	2	main_z	23	no	absent	0	1	2003	main
426897814	318473	2	main_z	24	yes	present	1	1	340	main
426897814	320603	2	main_z	25	yes	present	1	1	358	main
426897814	322476	2	main_z	26	yes	present	1	1	385	main
426897814	324112	2	main_z	27	yes	present	1	1	320	main
426897814	325974	2	main_z	28	yes	present	1	1	328	main
426897814	327757	2	main_z	29	yes	present	1	1	340	main
426897814	331101	2	main_z	30	yes	absent	0	0	2003	main
426897814	332412	2	main_z	31	yes	present	1	1	286	main
426897814	333941	2	main_z	32	yes	present	1	1	246	main
426897814	335640	2	main_z	33	yes	present	1	1	361	main
426897814	337257	2	main_z	34	yes	present	1	1	318	main
426897814	338903	2	main_z	35	yes	present	1	1	256	main
426897814	342171	2	main_z	36	no	absent	0	1	2003	main
426897814	345524	2	main_z	37	no	present	1	0	315	main
426897814	348184	2	main_z	38	yes	present	1	1	350	main
426897814	352171	2	main_z	39	no	absent	0	1	2003	main
426897814	355657	2	main_z	40	no	absent	0	1	2003	main
426897814	357043	2	main_z	41	yes	present	1	1	348	main
426897814	358712	2	main_z	42	yes	present	1	1	482	main
426897814	362351	2	main_z	43	no	absent	0	1	2003	main
426897814	365407	2	main_z	44	no	absent	0	1	2003	main
426897814	367062	2	main_z	45	yes	present	1	1	528	main
426897814	371359	2	main_z	46	no	absent	0	1	2003	main
426897814	372847	2	main_z	47	yes	present	1	1	297	main
426897814	374483	2	main_z	48	yes	present	1	1	336	main
426897814	375951	2	main_z	49	yes	present	1	1	318	main
426897814	377553	2	main_z	50	no	present	1	0	343	main
426897814	383721	2	main_z	51	yes	present	1	1	338	main
426897814	385502	2	main_z	52	yes	present	1	1	326	main
426897814	387276	2	main_z	53	yes	present	1	1	434	main
426897814	389513	2	main_z	54	no	present	1	0	234	main
426897814	391630	2	main_z	55	yes	present	1	1	420	main
426897814	395366	2	main_z	56	yes	absent	0	0	2003	main
426897814	398419	2	main_z	57	yes	present	1	1	355	main
426897814	401547	2	main_z	58	no	absent	0	1	2003	main
426897814	411123	2	main_z	59	yes	present	1	1	343	main
426897814	412778	2	main_z	60	yes	present	1	1	325	main
426897814	414308	2	main_z	61	yes	present	1	1	319	main
426897814	417484	2	main_z	62	no	absent	0	1	2003	main
426897814	418795	2	main_z	63	yes	present	1	1	349	main
426897814	420333	2	main_z	64	yes	present	1	1	345	main
426897814	422143	2	main_z	65	yes	present	1	1	585	main
426897814	424157	2	main_z	66	yes	present	1	1	280	main
426897814	425475	2	main_z	67	yes	present	1	1	237	main
426897814	426973	2	main_z	68	yes	present	1	1	381	main
426897814	428461	2	main_z	69	yes	present	1	1	257	main
426897814	435353	2	main_z	70	yes	absent	0	0	2003	main
426897814	436553	2	main_z	71	yes	present	1	1	322	main
426897814	437944	2	main_z	72	yes	present	1	1	357	main
426897814	439419	2	main_z	73	yes	present	1	1	306	main
426897814	440734	2	main_z	74	yes	present	1	1	315	main
426897814	442102	2	main_z	75	yes	present	1	1	315	main
426897814	444419	2	main_z	76	yes	present	1	1	311	main
426897814	446211	2	main_z	77	yes	present	1	1	284	main
426897814	450155	2	main_z	78	yes	present	1	1	360	main
426897814	451691	2	main_z	79	yes	present	1	1	300	main
426897814	455166	2	main_z	80	no	absent	0	1	2003	main
426897814	470406	3	practice_slash	1	yes	present	1	1	497	practice
426897814	473878	3	practice_slash	2	yes	present	1	1	302	practice
426897814	476480	3	practice_slash	3	yes	present	1	1	356	practice
426897814	480510	3	practice_slash	4	no	absent	0	1	2003	practice
426897814	483117	3	practice_slash	5	yes	present	1	1	362	practice
426897814	485955	3	practice_slash	6	yes	present	1	1	414	practice
426897814	488321	3	practice_slash	7	yes	present	1	1	302	practice
426897814	490788	3	practice_slash	8	yes	present	1	1	289	practice
426897814	493309	3	practice_slash	9	yes	present	1	1	401	practice
426897814	495689	3	practice_slash	10	no	present	1	0	309	practice
426897814	497946	3	practice_slash	11	yes	present	1	1	316	practice
426897814	500233	3	practice_slash	12	no	present	1	0	331	practice
426897814	502461	3	practice_slash	13	yes	present	1	1	331	practice
426897814	506412	3	practice_slash	14	no	absent	0	1	2003	practice
426897814	508673	3	practice_slash	15	yes	present	1	1	320	practice
426897814	510886	3	practice_slash	16	yes	present	1	1	345	practice
426897814	532528	4	main_slash	1	no	present	1	0	302	main
426897814	537341	4	main_slash	2	no	absent	0	1	2003	main
426897814	538881	4	main_slash	3	yes	present	1	1	403	main
426897814	540366	4	main_slash	4	yes	present	1	1	278	main
426897814	541881	4	main_slash	5	yes	present	1	1	196	main
426897814	543363	4	main_slash	6	yes	present	1	1	275	main
426897814	544894	4	main_slash	7	yes	present	1	1	306	main
426897814	546242	4	main_slash	8	yes	present	1	1	307	main
426897814	547717	4	main_slash	9	yes	present	1	1	288	main
426897814	549355	4	main_slash	10	yes	present	1	1	281	main
426897814	551192	4	main_slash	11	yes	present	1	1	223	main
426897814	553172	4	main_slash	12	yes	present	1	1	474	main
426897814	555189	4	main_slash	13	no	present	1	0	274	main
426897814	557318	4	main_slash	14	yes	present	1	1	244	main
426897814	559237	4	main_slash	15	no	present	1	0	233	main
426897814	567781	4	main_slash	16	yes	present	1	1	206	main
426897814	569399	4	main_slash	17	yes	present	1	1	297	main
426897814	571308	4	main_slash	18	yes	present	1	1	276	main
426897814	572942	4	main_slash	19	yes	present	1	1	313	main
426897814	574732	4	main_slash	20	yes	present	1	1	310	main
426897814	578348	4	main_slash	21	yes	absent	0	0	2003	main
426897814	580117	4	main_slash	22	yes	present	1	1	342	main
426897814	583619	4	main_slash	23	no	absent	0	1	2003	main
426897814	586487	4	main_slash	24	no	absent	0	1	2003	main
426897814	587680	4	main_slash	25	yes	present	1	1	293	main
426897814	589054	4	main_slash	26	yes	present	1	1	216	main
426897814	590523	4	main_slash	27	yes	present	1	1	303	main
426897814	592121	4	main_slash	28	yes	present	1	1	352	main
426897814	593637	4	main_slash	29	yes	present	1	1	249	main
426897814	595218	4	main_slash	30	no	present	1	0	359	main
426897814	597311	4	main_slash	31	yes	present	1	1	243	main
426897814	599502	4	main_slash	32	yes	present	1	1	254	main
426897814	601964	4	main_slash	33	yes	present	1	1	257	main
426897814	603894	4	main_slash	34	yes	present	1	1	334	main
426897814	605704	4	main_slash	35	yes	present	1	1	206	main
426897814	607995	4	main_slash	36	yes	present	1	1	344	main
426897814	609913	4	main_slash	37	yes	present	1	1	241	main
426897814	611563	4	main_slash	38	yes	present	1	1	329	main
426897814	613419	4	main_slash	39	yes	present	1	1	226	main
426897814	615550	4	main_slash	40	no	present	1	0	204	main
426897814	619508	4	main_slash	41	no	present	1	0	224	main
426897814	622301	4	main_slash	42	yes	present	1	1	338	main
426897814	625696	4	main_slash	43	no	absent	0	1	2003	main
426897814	627256	4	main_slash	44	yes	present	1	1	326	main
426897814	629541	4	main_slash	45	yes	present	1	1	326	main
426897814	631893	4	main_slash	46	yes	present	1	1	331	main
426897814	633497	4	main_slash	47	yes	present	1	1	276	main
426897814	635402	4	main_slash	48	no	present	1	0	215	main
426897814	637798	4	main_slash	49	yes	present	1	1	265	main
426897814	640088	4	main_slash	50	yes	present	1	1	291	main
426897814	641972	4	main_slash	51	yes	present	1	1	293	main
426897814	644110	4	main_slash	52	yes	present	1	1	306	main
426897814	645714	4	main_slash	53	no	present	1	0	215	main
426897814	649036	4	main_slash	54	no	present	1	0	225	main
426897814	651312	4	main_slash	55	yes	present	1	1	333	main
426897814	653128	4	main_slash	56	yes	present	1	1	372	main
426897814	655003	4	main_slash	57	yes	present	1	1	579	main
426897814	657117	4	main_slash	58	yes	present	1	1	347	main
426897814	659506	4	main_slash	59	yes	present	1	1	312	main
426897814	661256	4	main_slash	60	yes	present	1	1	340	main
426897814	662673	4	main_slash	61	yes	present	1	1	334	main
426897814	664261	4	main_slash	62	no	present	1	0	214	main
426897814	665854	4	main_slash	63	yes	present	1	1	286	main
426897814	667557	4	main_slash	64	yes	present	1	1	371	main
426897814	669219	4	main_slash	65	yes	present	1	1	344	main
426897814	670917	4	main_slash	66	yes	present	1	1	466	main
426897814	672752	4	main_slash	67	yes	present	1	1	274	main
426897814	676025	4	main_slash	68	yes	present	1	1	311	main
426897814	677364	4	main_slash	69	yes	present	1	1	309	main
426897814	678777	4	main_slash	70	yes	present	1	1	333	main
426897814	680406	4	main_slash	71	yes	present	1	1	330	main
426897814	681728	4	main_slash	72	yes	present	1	1	305	main
426897814	683127	4	main_slash	73	yes	present	1	1	260	main
426897814	684596	4	main_slash	74	yes	present	1	1	311	main
426897814	687898	4	main_slash	75	no	absent	0	1	2003	main
426897814	689875	4	main_slash	76	yes	present	1	1	306	main
426897814	691403	4	main_slash	77	yes	present	1	1	258	main
426897814	693064	4	main_slash	78	no	present	1	0	357	main
426897814	695051	4	main_slash	79	yes	present	1	1	329	main
426897814	696677	4	main_slash	80	yes	present	1	1	337	main
