subject	time_elapsed_ms	blocknum	block_type	block_response	trialnum	target	level	field	target_present	response	correct	rt
967837532	216465	1	practice	z	1	square	local	LVF	yes	absent	0	2000
967837532	221529	1	practice	z	2	circle	local	RVF	yes	absent	0	2000
967837532	226262	1	practice	z	3	circle	local	RVF	yes	absent	0	2000
967837532	229845	1	practice	z	4	circle	global	LVF	yes	present	1	832
967837532	234445	1	practice	z	5	absent	absent	absent	no	absent	1	2000
967837532	238994	1	practice	z	6	absent	absent	absent	no	absent	1	2000
967837532	242034	1	practice	z	7	square	global	LVF	yes	present	1	623
967837532	246445	1	practice	z	8	absent	absent	absent	no	absent	1	2000
967837532	250088	1	practice	z	9	circle	global	RVF	yes	present	1	611
967837532	254811	1	practice	z	10	circle	local	RVF	yes	absent	0	2000
967837532	262296	1	practice	z	11	square	global	LVF	yes	present	1	935
967837532	265920	1	practice	z	12	square	global	RVF	yes	present	1	593
967837532	269063	1	practice	z	13	circle	global	LVF	yes	present	1	602
967837532	273279	1	practice	z	14	square	local	LVF	yes	absent	0	2000
967837532	278128	1	practice	z	15	absent	absent	absent	no	absent	1	2000
967837532	281513	1	practice	z	16	circle	global	RVF	yes	present	1	852
967837532	296711	2	main	z	1	circle	local	RVF	yes	absent	0	2000
967837532	298892	2	main	z	2	square	global	LVF	yes	present	1	698
967837532	301319	2	main	z	3	circle	global	LVF	yes	present	1	525
967837532	303319	2	main	z	4	square	global	RVF	yes	present	1	809
967837532	306260	2	main	z	5	square	local	RVF	yes	absent	0	2000
967837532	310111	2	main	z	6	circle	local	LVF	yes	absent	0	2000
967837532	313311	2	main	z	7	absent	absent	absent	no	absent	1	2000
967837532	315128	2	main	z	8	circle	global	LVF	yes	present	1	651
967837532	319010	2	main	z	9	absent	absent	absent	no	absent	1	2000
967837532	321215	2	main	z	10	circle	global	LVF	yes	present	1	605
967837532	325577	2	main	z	11	circle	local	LVF	yes	absent	0	2000
967837532	327775	2	main	z	12	square	global	RVF	yes	present	1	765
967837532	331383	2	main	z	13	circle	local	RVF	yes	present	1	1239
967837532	334894	2	main	z	14	circle	local	RVF	yes	absent	0	2000
967837532	337452	2	main	z	15	square	global	LVF	yes	present	1	692
967837532	340960	2	main	z	16	absent	absent	absent	no	absent	1	2000
967837532	344244	2	main	z	17	square	local	RVF	yes	absent	0	2000
967837532	346236	2	main	z	18	square	local	LVF	yes	present	1	925
967837532	349728	2	main	z	19	circle	local	LVF	yes	absent	0	2000
967837532	352878	2	main	z	20	square	local	LVF	yes	absent	0	2000
967837532	354903	2	main	z	21	square	global	RVF	yes	present	1	610
967837532	358794	2	main	z	22	square	local	LVF	yes	absent	0	2000
967837532	361000	2	main	z	23	circle	global	RVF	yes	present	1	573
967837532	363125	2	main	z	24	square	global	RVF	yes	present	1	848
967837532	365036	2	main	z	25	circle	global	LVF	yes	present	1	693
967837532	368061	2	main	z	26	circle	local	LVF	yes	absent	0	2000
967837532	371228	2	main	z	27	absent	absent	absent	no	absent	1	2000
967837532	374477	2	main	z	28	absent	absent	absent	no	absent	1	2000
967837532	378193	2	main	z	29	absent	absent	absent	no	absent	1	2000
967837532	381627	2	main	z	30	absent	absent	absent	no	absent	1	2000
967837532	384223	2	main	z	31	circle	global	RVF	yes	present	1	563
967837532	387461	2	main	z	32	square	local	LVF	yes	absent	0	2000
967837532	389610	2	main	z	33	circle	global	RVF	yes	present	1	750
967837532	393860	2	main	z	34	absent	absent	absent	no	absent	1	2000
967837532	397245	2	main	z	35	square	global	LVF	yes	present	1	585
967837532	400626	2	main	z	36	square	local	RVF	yes	absent	0	2000
967837532	402430	2	main	z	37	square	global	LVF	yes	present	1	587
967837532	404894	2	main	z	38	circle	global	RVF	yes	present	1	701
967837532	408111	2	main	z	39	circle	local	RVF	yes	absent	0	2000
967837532	411377	2	main	z	40	square	local	RVF	yes	absent	0	2000
967837532	415011	2	main	z	41	circle	local	LVF	yes	absent	0	2000
967837532	417204	2	main	z	42	square	global	RVF	yes	present	1	695
967837532	421427	2	main	z	43	absent	absent	absent	no	absent	1	2000
967837532	425044	2	main	z	44	circle	local	LVF	yes	absent	0	2000
967837532	426928	2	main	z	45	circle	global	LVF	yes	present	1	635
967837532	430343	2	main	z	46	square	local	LVF	yes	absent	0	2000
967837532	434011	2	main	z	47	square	local	LVF	yes	absent	0	2000
967837532	436878	2	main	z	48	circle	local	RVF	yes	absent	0	2000
967837532	439016	2	main	z	49	circle	global	RVF	yes	present	1	606
967837532	442477	2	main	z	50	absent	absent	absent	no	absent	1	2000
967837532	446377	2	main	z	51	absent	absent	absent	no	absent	1	2000
967837532	448387	2	main	z	52	square	global	RVF	yes	present	1	594
967837532	450554	2	main	z	53	circle	global	LVF	yes	present	1	577
967837532	452630	2	main	z	54	square	global	LVF	yes	present	1	936
967837532	454829	2	main	z	55	square	global	LVF	yes	present	1	1036
967837532	459094	2	main	z	56	square	local	RVF	yes	absent	0	2000
967837532	461103	2	main	z	57	circle	global	LVF	yes	present	1	475
967837532	464494	2	main	z	58	square	local	RVF	yes	absent	0	2000
967837532	470079	2	main	z	59	square	local	LVF	yes	absent	0	2000
967837532	473195	2	main	z	60	square	local	RVF	yes	absent	0	2000
967837532	475295	2	main	z	61	square	global	LVF	yes	present	1	519
967837532	477705	2	main	z	62	circle	global	RVF	yes	present	1	695
967837532	480861	2	main	z	63	absent	absent	absent	no	absent	1	2000
967837532	482677	2	main	z	64	square	global	RVF	yes	present	1	567
967837532	486145	2	main	z	65	circle	local	RVF	yes	absent	0	2000
967837532	487773	2	main	z	66	circle	global	RVF	yes	present	1	546
967837532	490017	2	main	z	67	circle	global	LVF	yes	present	1	506
967837532	491819	2	main	z	68	square	global	RVF	yes	present	1	542
967837532	494794	2	main	z	69	absent	absent	absent	no	absent	1	2000
967837532	496573	2	main	z	70	circle	global	RVF	yes	present	1	463
967837532	499677	2	main	z	71	square	local	RVF	yes	absent	0	2000
967837532	504860	2	main	z	72	circle	local	RVF	yes	absent	0	2000
967837532	509693	2	main	z	73	circle	local	RVF	yes	absent	0	2000
967837532	511689	2	main	z	74	square	global	LVF	yes	present	1	512
967837532	515410	2	main	z	75	absent	absent	absent	no	absent	1	2000
967837532	519010	2	main	z	76	absent	absent	absent	no	absent	1	2000
967837532	522144	2	main	z	77	circle	local	LVF	yes	absent	0	2000
967837532	525228	2	main	z	78	absent	absent	absent	no	absent	1	2000
967837532	528711	2	main	z	79	square	local	LVF	yes	absent	0	2000
967837532	531961	2	main	z	80	circle	local	LVF	yes	absent	0	2000
967837532	551396	3	practice	slash	1	absent	absent	absent	no	absent	1	2000
967837532	556496	3	practice	slash	2	absent	absent	absent	no	absent	1	2000
967837532	560664	3	practice	slash	3	square	global	LVF	yes	present	1	669
967837532	565011	3	practice	slash	4	square	local	LVF	yes	absent	0	2000
967837532	569611	3	practice	slash	5	absent	absent	absent	no	absent	1	2000
967837532	572496	3	practice	slash	6	circle	global	LVF	yes	present	1	601
967837532	577211	3	practice	slash	7	absent	absent	absent	no	absent	1	2000
967837532	580167	3	practice	slash	8	square	global	LVF	yes	present	1	590
967837532	583353	3	practice	slash	9	circle	global	LVF	yes	present	1	477
967837532	586148	3	practice	slash	10	circle	global	RVF	yes	present	1	487
967837532	591162	3	practice	slash	11	circle	local	RVF	yes	absent	0	2000
967837532	600038	3	practice	slash	12	square	global	RVF	yes	present	1	995
967837532	607422	3	practice	slash	13	circle	local	RVF	yes	present	1	1211
967837532	613835	3	practice	slash	14	square	local	LVF	yes	present	1	658
967837532	618644	3	practice	slash	15	circle	global	RVF	yes	absent	0	2000
967837532	622620	3	practice	slash	16	circle	local	RVF	yes	present	1	1559
967837532	648745	4	main	slash	1	absent	absent	absent	no	absent	1	2000
967837532	652394	4	main	slash	2	square	global	LVF	yes	absent	0	2000
967837532	655894	4	main	slash	3	absent	absent	absent	no	absent	1	2000
967837532	659011	4	main	slash	4	absent	absent	absent	no	absent	1	2000
967837532	661913	4	main	slash	5	circle	global	RVF	yes	present	1	470
967837532	663999	4	main	slash	6	circle	global	LVF	yes	present	1	588
967837532	665898	4	main	slash	7	square	global	LVF	yes	present	1	455
967837532	669161	4	main	slash	8	circle	local	LVF	yes	absent	0	2000
967837532	672577	4	main	slash	9	square	local	RVF	yes	absent	0	2000
967837532	675694	4	main	slash	10	square	local	RVF	yes	absent	0	2000
967837532	677610	4	main	slash	11	square	global	RVF	yes	present	1	617
967837532	681112	4	main	slash	12	circle	global	RVF	yes	present	1	452
967837532	684729	4	main	slash	13	circle	local	RVF	yes	absent	0	2000
967837532	688027	4	main	slash	14	circle	local	LVF	yes	absent	0	2000
967837532	690788	4	main	slash	15	square	global	LVF	yes	present	1	545
967837532	692578	4	main	slash	16	square	global	RVF	yes	present	1	601
967837532	695644	4	main	slash	17	absent	absent	absent	no	absent	1	2000
967837532	698977	4	main	slash	18	absent	absent	absent	no	absent	1	2000
967837532	702209	4	main	slash	19	circle	global	LVF	yes	present	1	900
967837532	705577	4	main	slash	20	circle	local	RVF	yes	absent	0	2000
967837532	709010	4	main	slash	21	square	local	LVF	yes	absent	0	2000
967837532	712311	4	main	slash	22	circle	global	LVF	yes	present	1	1001
967837532	715805	4	main	slash	23	circle	local	LVF	yes	present	1	1112
967837532	717951	4	main	slash	24	square	local	RVF	yes	present	1	708
967837532	719987	4	main	slash	25	circle	local	RVF	yes	present	1	710
967837532	722255	4	main	slash	26	circle	global	LVF	yes	present	1	1144
967837532	725195	4	main	slash	27	square	local	LVF	yes	present	1	619
967837532	728494	4	main	slash	28	circle	global	RVF	yes	absent	0	2000
967837532	731744	4	main	slash	29	square	local	LVF	yes	absent	0	2000
967837532	735143	4	main	slash	30	absent	absent	absent	no	absent	1	2000
967837532	738527	4	main	slash	31	square	global	RVF	yes	absent	0	2000
967837532	741843	4	main	slash	32	absent	absent	absent	no	absent	1	2000
967837532	745061	4	main	slash	33	absent	absent	absent	no	absent	1	2000
967837532	746769	4	main	slash	34	circle	global	RVF	yes	present	1	527
967837532	748921	4	main	slash	35	square	local	LVF	yes	present	1	779
967837532	751444	4	main	slash	36	square	local	RVF	yes	present	1	901
967837532	753397	4	main	slash	37	square	global	RVF	yes	present	1	720
967837532	755186	4	main	slash	38	square	global	LVF	yes	present	1	659
967837532	757197	4	main	slash	39	circle	local	RVF	yes	present	1	1004
967837532	758817	4	main	slash	40	circle	local	LVF	yes	present	1	507
967837532	761794	4	main	slash	41	square	global	LVF	yes	absent	0	2000
967837532	764233	4	main	slash	42	square	local	LVF	yes	present	1	1173
967837532	767360	4	main	slash	43	square	local	RVF	yes	absent	0	2000
967837532	769158	4	main	slash	44	circle	global	LVF	yes	present	1	515
967837532	770825	4	main	slash	45	square	global	LVF	yes	present	1	599
967837532	772342	4	main	slash	46	square	global	LVF	yes	present	1	533
967837532	774357	4	main	slash	47	square	local	LVF	yes	present	1	1030
967837532	777410	4	main	slash	48	absent	absent	absent	no	absent	1	2000
967837532	779180	4	main	slash	49	circle	local	LVF	yes	present	1	587
967837532	781164	4	main	slash	50	circle	global	RVF	yes	present	1	888
967837532	783767	4	main	slash	51	circle	local	LVF	yes	present	1	1557
967837532	786910	4	main	slash	52	absent	absent	absent	no	absent	1	2000
967837532	789548	4	main	slash	53	circle	global	LVF	yes	present	1	1237
967837532	792597	4	main	slash	54	circle	local	RVF	yes	absent	0	2000
967837532	796661	4	main	slash	55	absent	absent	absent	no	absent	1	2000
967837532	798051	4	main	slash	56	square	global	RVF	yes	present	1	591
967837532	799776	4	main	slash	57	square	global	LVF	yes	present	1	534
967837532	801259	4	main	slash	58	circle	global	LVF	yes	present	1	517
967837532	802913	4	main	slash	59	circle	global	LVF	yes	present	1	636
967837532	804730	4	main	slash	60	circle	local	LVF	yes	present	1	904
967837532	807460	4	main	slash	61	circle	global	RVF	yes	present	1	566
967837532	810047	4	main	slash	62	square	local	RVF	yes	present	1	969
967837532	812284	4	main	slash	63	circle	local	LVF	yes	present	1	991
967837532	815328	4	main	slash	64	circle	local	RVF	yes	absent	0	2000
967837532	817319	4	main	slash	65	circle	global	RVF	yes	present	1	609
967837532	820750	4	main	slash	66	square	local	LVF	yes	present	1	957
967837532	823943	4	main	slash	67	absent	absent	absent	no	absent	1	2000
967837532	825937	4	main	slash	68	circle	local	RVF	yes	present	1	710
967837532	827576	4	main	slash	69	square	global	RVF	yes	present	1	550
967837532	830610	4	main	slash	70	absent	absent	absent	no	absent	1	2000
967837532	833743	4	main	slash	71	absent	absent	absent	no	absent	1	2000
967837532	835205	4	main	slash	72	square	global	RVF	yes	present	1	495
967837532	836882	4	main	slash	73	square	global	RVF	yes	present	1	638
967837532	840577	4	main	slash	74	square	local	RVF	yes	absent	0	2000
967837532	842448	4	main	slash	75	circle	local	RVF	yes	present	1	571
967837532	845744	4	main	slash	76	absent	absent	absent	no	absent	1	2000
967837532	849327	4	main	slash	77	absent	absent	absent	no	absent	1	2000
967837532	851657	4	main	slash	78	square	local	RVF	yes	present	1	546
967837532	853873	4	main	slash	79	circle	global	RVF	yes	present	1	563
967837532	855823	4	main	slash	80	square	local	LVF	yes	present	1	913
